<?xml version='1.0' encoding='utf-8'?>
<?xml version="1.0"  ?>
<?xml-stylesheet type="textxsl" href="" ?>
<!-- ******************************************************************************* -->
<!-- File: define.xml                                                                -->
<!-- Date: 30Jan2014                                  -->
<!-- Description: Define.xml file for                                                -->
<!-- ******************************************************************************* -->
<ODM xmlns="http://www.cdisc.org/ns/odm/v1.2" xmlns:xsi="http://www.w3.org/2001/XMLSchema-instance" xmlns:xlink="http://www.w3.org/1999/xlink" xmlns:def="http://www.cdisc.org/ns/def/v1.0" xsi:schemaLocation="http://www.cdisc.org/ns/odm/v1.2 define1-0-0.xsd" FileOID="0    XYZ123 Name: FILEOID, dtype: object" ODMVersion="0    3.1.2 Name: VERSION, dtype: object" FileType="Snapshot" CreationDateTime="2014-01-30T21:01:20">

    <Study OID="0    123 Name: STUDYOID, dtype: float64">

        <GlobalVariables>
            
            <StudyName> XYZ123 </StudyName>
            
            <StudyDescription> A PHASE IIB, DOUBLE-BLIND, MULTI-CENTER, PLACEBO CONTROLLED, PARALLEL GROUP TRIAL OF ANALGEZIA HCL FOR THE TREATMENT OF CHRONIC PAIN </StudyDescription>
            
            <ProtocolName> XYZ123 </ProtocolName>
            
        </GlobalVariables>


        <MetaDataVersion OID="CDISC.SDTM3.1.2" Name="XYZ123,Data Definitions" Description=" XYZ123,Data Definitions" def:DefineVersion="1.0.0" def:StandardName="CDISC SDTM" def:StandardVersion="3.1.2">

    
    
    <def:AnnotatedCRF>
        <def:DocumentRef leafID="blankcrf"/>
    </def:AnnotatedCRF>
    <def:leaf ID="blankcrf" xlink:href="test.pdf">
        <def:title>
            Annotated Case Report Form
        </def:title>
    </def:leaf>
    
    
    <!-- ******************************************* -->
    <!-- COMPUTATIONAL METHOD INFORMATION        *** -->
    <!-- ******************************************* -->
    
            <def:ComputationMethod OID="AGECALCULATION">
                integer value of (BRTHDT - RFSTDTC)/365.25
            </def:ComputationMethod> 
    

    <!-- ******************************************* -->
    <!-- VALUE LEVEL LIST DEFINITION INFORMATION  ** -->
    <!-- ******************************************* -->
          
         <def:ValueListDef OID="LBTESTCDVALUE">
             
             <ItemRef ItemOID="LBTESTCDVALUE.ALB" Mandatory="No"/>    
             
             <ItemRef ItemOID="LBTESTCDVALUE.ALP" Mandatory="No"/>    
             
             <ItemRef ItemOID="LBTESTCDVALUE.ALT" Mandatory="No"/>    
             
             <ItemRef ItemOID="LBTESTCDVALUE.AST" Mandatory="No"/>    
             
             <ItemRef ItemOID="LBTESTCDVALUE.BILDIR" Mandatory="No"/>    
             
             <ItemRef ItemOID="LBTESTCDVALUE.BILI" Mandatory="No"/>    
             
             <ItemRef ItemOID="LBTESTCDVALUE.GGT" Mandatory="No"/>    
             
             <ItemRef ItemOID="LBTESTCDVALUE.HCT" Mandatory="No"/>    
             
             <ItemRef ItemOID="LBTESTCDVALUE.HGB" Mandatory="No"/>    
             
             <ItemRef ItemOID="LBTESTCDVALUE.PROT" Mandatory="No"/>    
              
        </def:ValueListDef>
    


    <!-- ******************************************* -->
    <!-- ItemGroupDef INFORMATION ***                -->
    <!-- ******************************************* -->
        
            <ItemGroupDef OID="AE" Name="AE" Repeating="Yes" Purpose="Tabulation" IsReferenceData="No" def:Label="Adverse Events" def:Structure="Events - One record per event per subject" def:DomainKeys="STUDYID, USUBJID, AEDECOD, AESTDTC" def:Class="Events" def:ArchiveLocationID="Location../ae">
                
                <ItemRef ItemOID="STUDYID" OrderNumber="1" Mandatory="Yes" Role="Identifier" RoleCodeListOID="CodeList.ROLECODE"/>
                
                <ItemRef ItemOID="DOMAIN" OrderNumber="2" Mandatory="Yes" Role="Identifier" RoleCodeListOID="CodeList.ROLECODE"/>
                
                <ItemRef ItemOID="USUBJID" OrderNumber="3" Mandatory="Yes" Role="Identifier" RoleCodeListOID="CodeList.ROLECODE"/>
                
                <ItemRef ItemOID="AE.AESEQ" OrderNumber="4" Mandatory="Yes" Role="Identifier" RoleCodeListOID="CodeList.ROLECODE"/>
                
                <ItemRef ItemOID="AE.AETERM" OrderNumber="5" Mandatory="Yes" Role="Topic" RoleCodeListOID="CodeList.ROLECODE"/>
                
                <ItemRef ItemOID="AE.AEDECOD" OrderNumber="6" Mandatory="Yes" Role="Synonym Qualifier" RoleCodeListOID="CodeList.ROLECODE"/>
                
                <ItemRef ItemOID="AE.AEBODSYS" OrderNumber="7" Mandatory="No" Role="Record Qualifier" RoleCodeListOID="CodeList.ROLECODE"/>
                
                <ItemRef ItemOID="AE.AESEV" OrderNumber="8" Mandatory="No" Role="Record Qualifier" RoleCodeListOID="CodeList.ROLECODE"/>
                
                <ItemRef ItemOID="AE.AESER" OrderNumber="9" Mandatory="No" Role="Record Qualifier" RoleCodeListOID="CodeList.ROLECODE"/>
                
                <ItemRef ItemOID="AE.AEACN" OrderNumber="10" Mandatory="No" Role="Record Qualifier" RoleCodeListOID="CodeList.ROLECODE"/>
                
                <ItemRef ItemOID="AE.AEREL" OrderNumber="11" Mandatory="No" Role="Record Qualifier" RoleCodeListOID="CodeList.ROLECODE"/>
                
                <ItemRef ItemOID="AE.AESTDTC" OrderNumber="12" Mandatory="No" Role="Timing" RoleCodeListOID="CodeList.ROLECODE"/>
                
                <ItemRef ItemOID="AE.AEENDTC" OrderNumber="13" Mandatory="No" Role="Timing" RoleCodeListOID="CodeList.ROLECODE"/>
                
                <ItemRef ItemOID="AE.AESTDY" OrderNumber="14" Mandatory="No" Role="Timing" RoleCodeListOID="CodeList.ROLECODE"/>
                
                <ItemRef ItemOID="AE.AEENDY" OrderNumber="15" Mandatory="No" Role="Timing" RoleCodeListOID="CodeList.ROLECODE"/>
                
                <def:leaf ID="Location.AE" xlink:href="./AE.xpt">
                    <def:title>./AE.xpt </def:title>
                </def:leaf>
            </ItemGroupDef>
       
            <ItemGroupDef OID="DM" Name="DM" Repeating="No" Purpose="Tabulation " IsReferenceData="No" def:Label="Demographics" def:Structure="Special Purpose - One record per event per subject" def:DomainKeys="STUDYID, USUBJID" def:Class="Special Purpose" def:ArchiveLocationID="Location../dm">
                
                <ItemRef ItemOID="STUDYID" OrderNumber="1" Mandatory="Yes" Role="Identifier" RoleCodeListOID="CodeList.ROLECODE"/>
                
                <ItemRef ItemOID="DOMAIN" OrderNumber="2" Mandatory="Yes" Role="Identifier" RoleCodeListOID="CodeList.ROLECODE"/>
                
                <ItemRef ItemOID="USUBJID" OrderNumber="3" Mandatory="Yes" Role="Identifier" RoleCodeListOID="CodeList.ROLECODE"/>
                
                <ItemRef ItemOID="SUBJID" OrderNumber="4" Mandatory="Yes" Role="Identifier" RoleCodeListOID="CodeList.ROLECODE"/>
                
                <ItemRef ItemOID="DM.RFSTDTC" OrderNumber="5" Mandatory="No" Role="Record Qualifier" RoleCodeListOID="CodeList.ROLECODE"/>
                
                <ItemRef ItemOID="DM.RFENDTC" OrderNumber="6" Mandatory="No" Role="Record Qualifier" RoleCodeListOID="CodeList.ROLECODE"/>
                
                <ItemRef ItemOID="DM.SITEID" OrderNumber="7" Mandatory="Yes" Role="Record Qualifier" RoleCodeListOID="CodeList.ROLECODE"/>
                
                <ItemRef ItemOID="DM.BRTHDTC" OrderNumber="8" Mandatory="No" Role="Record Qualifier" RoleCodeListOID="CodeList.ROLECODE"/>
                
                <ItemRef ItemOID="DM.AGE" OrderNumber="9" Mandatory="No" Role="Record Qualifier" RoleCodeListOID="CodeList.ROLECODE"/>
                
                <ItemRef ItemOID="DM.AGEU" OrderNumber="10" Mandatory="No" Role="Variable Qualifier" RoleCodeListOID="CodeList.ROLECODE"/>
                
                <ItemRef ItemOID="DM.SEX" OrderNumber="11" Mandatory="Yes" Role="Record Qualifier" RoleCodeListOID="CodeList.ROLECODE"/>
                
                <ItemRef ItemOID="DM.RACE" OrderNumber="12" Mandatory="No" Role="Record Qualifier" RoleCodeListOID="CodeList.ROLECODE"/>
                
                <ItemRef ItemOID="DM.ARMCD" OrderNumber="13" Mandatory="Yes" Role="Record Qualifier" RoleCodeListOID="CodeList.ROLECODE"/>
                
                <ItemRef ItemOID="DM.ARM" OrderNumber="14" Mandatory="Yes" Role="Synonym Qualifier" RoleCodeListOID="CodeList.ROLECODE"/>
                
                <ItemRef ItemOID="DM.COUNTRY" OrderNumber="15" Mandatory="Yes" Role="Record Qualifier" RoleCodeListOID="CodeList.ROLECODE"/>
                
                <def:leaf ID="Location.DM" xlink:href="./DM.xpt">
                    <def:title>./DM.xpt </def:title>
                </def:leaf>
            </ItemGroupDef>
       
            <ItemGroupDef OID="EX" Name="EX" Repeating="Yes" Purpose="Tabulation " IsReferenceData="No" def:Label="Exposure" def:Structure="One record per constant dosing interval per subject" def:DomainKeys="STUDYID, USUBJID, EXTRT, EXSTDTC" def:Class="Interventions" def:ArchiveLocationID="Location../ex">
                
                <ItemRef ItemOID="STUDYID" OrderNumber="1" Mandatory="Yes" Role="Identifier" RoleCodeListOID="CodeList.ROLECODE"/>
                
                <ItemRef ItemOID="DOMAIN" OrderNumber="2" Mandatory="Yes" Role="Identifier" RoleCodeListOID="CodeList.ROLECODE"/>
                
                <ItemRef ItemOID="USUBJID" OrderNumber="3" Mandatory="Yes" Role="Identifier" RoleCodeListOID="CodeList.ROLECODE"/>
                
                <ItemRef ItemOID="EX.EXSEQ" OrderNumber="4" Mandatory="Yes" Role="Identifier" RoleCodeListOID="CodeList.ROLECODE"/>
                
                <ItemRef ItemOID="EX.EXTRT" OrderNumber="5" Mandatory="Yes" Role="Topic" RoleCodeListOID="CodeList.ROLECODE"/>
                
                <ItemRef ItemOID="EX.EXDOSE" OrderNumber="6" Mandatory="No" Role="Record Qualifier" RoleCodeListOID="CodeList.ROLECODE"/>
                
                <ItemRef ItemOID="EX.EXDOSU" OrderNumber="7" Mandatory="No" Role="Variable Qualifier" RoleCodeListOID="CodeList.ROLECODE"/>
                
                <ItemRef ItemOID="EX.EXDOSFRM" OrderNumber="8" Mandatory="No" Role="Record Qualifier" RoleCodeListOID="CodeList.ROLECODE"/>
                
                <ItemRef ItemOID="EX.EXDOSTOT" OrderNumber="9" Mandatory="No" Role="Record Qualifier" RoleCodeListOID="CodeList.ROLECODE"/>
                
                <ItemRef ItemOID="EX.EXSTDTC" OrderNumber="10" Mandatory="No" Role="Timing" RoleCodeListOID="CodeList.ROLECODE"/>
                
                <ItemRef ItemOID="EX.EXENDTC" OrderNumber="11" Mandatory="No" Role="Timing" RoleCodeListOID="CodeList.ROLECODE"/>
                
                <ItemRef ItemOID="EX.EXSTDY" OrderNumber="12" Mandatory="No" Role="Timing" RoleCodeListOID="CodeList.ROLECODE"/>
                
                <ItemRef ItemOID="EX.EXENDY" OrderNumber="13" Mandatory="No" Role="Timing" RoleCodeListOID="CodeList.ROLECODE"/>
                
                <def:leaf ID="Location.EX" xlink:href="./EX.xpt">
                    <def:title>./EX.xpt </def:title>
                </def:leaf>
            </ItemGroupDef>
       
            <ItemGroupDef OID="LB" Name="LB" Repeating="Yes" Purpose="Tabulation " IsReferenceData="No" def:Label="Laboratory Tests" def:Structure="Findings - One record per lab test per subject" def:DomainKeys="STUDYID, USUBJID, LBCAT, LBTESTCD, VISITNUM" def:Class="Findings" def:ArchiveLocationID="Location../lb">
                
                <ItemRef ItemOID="STUDYID" OrderNumber="1" Mandatory="Yes" Role="Identifier" RoleCodeListOID="CodeList.ROLECODE"/>
                
                <ItemRef ItemOID="DOMAIN" OrderNumber="2" Mandatory="Yes" Role="Identifier" RoleCodeListOID="CodeList.ROLECODE"/>
                
                <ItemRef ItemOID="USUBJID" OrderNumber="3" Mandatory="Yes" Role="Identifier" RoleCodeListOID="CodeList.ROLECODE"/>
                
                <ItemRef ItemOID="LB.LBSEQ" OrderNumber="4" Mandatory="Yes" Role="Identifier" RoleCodeListOID="CodeList.ROLECODE"/>
                
                <ItemRef ItemOID="LB.LBTESTCD" OrderNumber="5" Mandatory="Yes" Role="Topic" RoleCodeListOID="CodeList.ROLECODE"/>
                
                <ItemRef ItemOID="LB.LBTEST" OrderNumber="6" Mandatory="Yes" Role="Synonym Qualifier" RoleCodeListOID="CodeList.ROLECODE"/>
                
                <ItemRef ItemOID="LB.LBCAT" OrderNumber="7" Mandatory="No" Role="Grouping Qualifier" RoleCodeListOID="CodeList.ROLECODE"/>
                
                <ItemRef ItemOID="LB.LBORRES" OrderNumber="8" Mandatory="No" Role="Result Qualifier" RoleCodeListOID="CodeList.ROLECODE"/>
                
                <ItemRef ItemOID="LB.LBORRESU" OrderNumber="9" Mandatory="No" Role="Variable Qualifier" RoleCodeListOID="CodeList.ROLECODE"/>
                
                <ItemRef ItemOID="LB.LBORNRLO" OrderNumber="10" Mandatory="No" Role="Variable Qualifier" RoleCodeListOID="CodeList.ROLECODE"/>
                
                <ItemRef ItemOID="LB.LBORNRHI" OrderNumber="11" Mandatory="No" Role="Variable Qualifier" RoleCodeListOID="CodeList.ROLECODE"/>
                
                <ItemRef ItemOID="LB.LBSTRESC" OrderNumber="12" Mandatory="No" Role="Result Qualifier" RoleCodeListOID="CodeList.ROLECODE"/>
                
                <ItemRef ItemOID="LB.LBSTRESN" OrderNumber="13" Mandatory="No" Role="Result Qualifier" RoleCodeListOID="CodeList.ROLECODE"/>
                
                <ItemRef ItemOID="LB.LBSTRESU" OrderNumber="14" Mandatory="No" Role="Variable Qualifier" RoleCodeListOID="CodeList.ROLECODE"/>
                
                <ItemRef ItemOID="LB.LBSTNRLO" OrderNumber="15" Mandatory="No" Role="Variable Qualifier" RoleCodeListOID="CodeList.ROLECODE"/>
                
                <ItemRef ItemOID="LB.LBSTNRHI" OrderNumber="16" Mandatory="No" Role="Variable Qualifier" RoleCodeListOID="CodeList.ROLECODE"/>
                
                <ItemRef ItemOID="LB.LBNRIND" OrderNumber="17" Mandatory="No" Role="Variable Qualifier" RoleCodeListOID="CodeList.ROLECODE"/>
                
                <ItemRef ItemOID="LB.LBBLFL" OrderNumber="18" Mandatory="No" Role="Record Qualifier" RoleCodeListOID="CodeList.ROLECODE"/>
                
                <ItemRef ItemOID="LB.VISITNUM" OrderNumber="19" Mandatory="No" Role="Timing" RoleCodeListOID="CodeList.ROLECODE"/>
                
                <ItemRef ItemOID="LB.VISIT" OrderNumber="20" Mandatory="No" Role="Timing" RoleCodeListOID="CodeList.ROLECODE"/>
                
                <ItemRef ItemOID="LB.LBDTC" OrderNumber="21" Mandatory="No" Role="Timing" RoleCodeListOID="CodeList.ROLECODE"/>
                
                <ItemRef ItemOID="LB.LBDY" OrderNumber="22" Mandatory="No" Role="Timing" RoleCodeListOID="CodeList.ROLECODE"/>
                
                <def:leaf ID="Location.LB" xlink:href="./LB.xpt">
                    <def:title>./LB.xpt </def:title>
                </def:leaf>
            </ItemGroupDef>
       
            <ItemGroupDef OID="SUPPDM" Name="SUPPDM" Repeating="Yes" Purpose="Tabulation" IsReferenceData="No" def:Label="DM - Supplemental Qualifiers" def:Structure="Supplemental Qualifier - One record per qualifier" def:DomainKeys="STUDYID, RDOMAIN, USUBJID, IDVAR, IDVARVAL, QNAM" def:Class="Supplemental Qualifier" def:ArchiveLocationID="Location../suppdm">
                
                <ItemRef ItemOID="STUDYID" OrderNumber="1" Mandatory="Yes" Role="nan" RoleCodeListOID="CodeList.ROLECODE"/>
                
                <ItemRef ItemOID="SUPPDM.RDOMAIN" OrderNumber="2" Mandatory="Yes" Role="nan" RoleCodeListOID="CodeList.ROLECODE"/>
                
                <ItemRef ItemOID="USUBJID" OrderNumber="3" Mandatory="Yes" Role="nan" RoleCodeListOID="CodeList.ROLECODE"/>
                
                <ItemRef ItemOID="SUPPDM.IDVAR" OrderNumber="4" Mandatory="No" Role="nan" RoleCodeListOID="CodeList.ROLECODE"/>
                
                <ItemRef ItemOID="SUPPDM.IDVARVAL" OrderNumber="5" Mandatory="No" Role="nan" RoleCodeListOID="CodeList.ROLECODE"/>
                
                <ItemRef ItemOID="SUPPDM.QNAM" OrderNumber="6" Mandatory="Yes" Role="nan" RoleCodeListOID="CodeList.ROLECODE"/>
                
                <ItemRef ItemOID="SUPPDM.QLABEL" OrderNumber="7" Mandatory="Yes" Role="nan" RoleCodeListOID="CodeList.ROLECODE"/>
                
                <ItemRef ItemOID="SUPPDM.QVAL" OrderNumber="8" Mandatory="Yes" Role="nan" RoleCodeListOID="CodeList.ROLECODE"/>
                
                <ItemRef ItemOID="SUPPDM.QORIG" OrderNumber="9" Mandatory="Yes" Role="nan" RoleCodeListOID="CodeList.ROLECODE"/>
                
                <ItemRef ItemOID="SUPPDM.QEVAL" OrderNumber="10" Mandatory="No" Role="nan" RoleCodeListOID="CodeList.ROLECODE"/>
                
                <def:leaf ID="Location.SUPPDM" xlink:href="./SUPPDM.xpt">
                    <def:title>./SUPPDM.xpt </def:title>
                </def:leaf>
            </ItemGroupDef>
       
            <ItemGroupDef OID="TA" Name="TA" Repeating="Yes" Purpose="Tabulation " IsReferenceData="Yes" def:Label="Trial Arms" def:Structure="One record per planned Element per Arm" def:DomainKeys="STUDYID, ARMCD, TAETORD" def:Class="Trial Design" def:ArchiveLocationID="Location../ta">
                
                <ItemRef ItemOID="STUDYID" OrderNumber="1" Mandatory="Yes" Role="Identifier" RoleCodeListOID="CodeList.ROLECODE"/>
                
                <ItemRef ItemOID="DOMAIN" OrderNumber="2" Mandatory="Yes" Role="Identifier" RoleCodeListOID="CodeList.ROLECODE"/>
                
                <ItemRef ItemOID="TA.ARMCD" OrderNumber="3" Mandatory="Yes" Role="Topic" RoleCodeListOID="CodeList.ROLECODE"/>
                
                <ItemRef ItemOID="TA.ARM" OrderNumber="4" Mandatory="Yes" Role="Synonym Qualifier" RoleCodeListOID="CodeList.ROLECODE"/>
                
                <ItemRef ItemOID="TA.TAETORD" OrderNumber="5" Mandatory="Yes" Role="Identifier" RoleCodeListOID="CodeList.ROLECODE"/>
                
                <ItemRef ItemOID="TA.ETCD" OrderNumber="6" Mandatory="Yes" Role="Record Qualifier" RoleCodeListOID="CodeList.ROLECODE"/>
                
                <ItemRef ItemOID="TA.ELEMENT" OrderNumber="7" Mandatory="No" Role="Synonym Qualifier" RoleCodeListOID="CodeList.ROLECODE"/>
                
                <ItemRef ItemOID="TA.TABRANCH" OrderNumber="8" Mandatory="No" Role="Rule" RoleCodeListOID="CodeList.ROLECODE"/>
                
                <ItemRef ItemOID="TA.TATRANS" OrderNumber="9" Mandatory="No" Role="Rule" RoleCodeListOID="CodeList.ROLECODE"/>
                
                <ItemRef ItemOID="TA.EPOCH" OrderNumber="10" Mandatory="No" Role="Timing" RoleCodeListOID="CodeList.ROLECODE"/>
                
                <def:leaf ID="Location.TA" xlink:href="./TA.xpt">
                    <def:title>./TA.xpt </def:title>
                </def:leaf>
            </ItemGroupDef>
       
            <ItemGroupDef OID="TE" Name="TE" Repeating="Yes" Purpose="Tabulation " IsReferenceData="Yes" def:Label="Trial Elements" def:Structure="One record per planned Element" def:DomainKeys="STUDYID, ETCD" def:Class="Trial Design" def:ArchiveLocationID="Location../te">
                
                <ItemRef ItemOID="STUDYID" OrderNumber="1" Mandatory="Yes" Role="Identifier" RoleCodeListOID="CodeList.ROLECODE"/>
                
                <ItemRef ItemOID="DOMAIN" OrderNumber="2" Mandatory="Yes" Role="Identifier" RoleCodeListOID="CodeList.ROLECODE"/>
                
                <ItemRef ItemOID="TE.ETCD" OrderNumber="3" Mandatory="Yes" Role="Topic " RoleCodeListOID="CodeList.ROLECODE"/>
                
                <ItemRef ItemOID="TE.ELEMENT" OrderNumber="4" Mandatory="Yes" Role="Synonym Qualifier" RoleCodeListOID="CodeList.ROLECODE"/>
                
                <ItemRef ItemOID="TE.TESTRL" OrderNumber="5" Mandatory="Yes" Role="Rule" RoleCodeListOID="CodeList.ROLECODE"/>
                
                <ItemRef ItemOID="TE.TEENRL" OrderNumber="6" Mandatory="No" Role="Rule" RoleCodeListOID="CodeList.ROLECODE"/>
                
                <ItemRef ItemOID="TE.TEDUR" OrderNumber="7" Mandatory="No" Role="Timing" RoleCodeListOID="CodeList.ROLECODE"/>
                
                <def:leaf ID="Location.TE" xlink:href="./TE.xpt">
                    <def:title>./TE.xpt </def:title>
                </def:leaf>
            </ItemGroupDef>
       
            <ItemGroupDef OID="TI" Name="TI" Repeating="Yes" Purpose="Tabulation " IsReferenceData="Yes" def:Label="Trial Inclusion/Exclusion Criteria" def:Structure="One record per I/E criterion" def:DomainKeys="STUDYID, IETESTCD" def:Class="Trial Design" def:ArchiveLocationID="Location../ti">
                
                <ItemRef ItemOID="STUDYID" OrderNumber="1" Mandatory="Yes" Role="Identifier" RoleCodeListOID="CodeList.ROLECODE"/>
                
                <ItemRef ItemOID="DOMAIN" OrderNumber="2" Mandatory="Yes" Role="Identifier" RoleCodeListOID="CodeList.ROLECODE"/>
                
                <ItemRef ItemOID="TI.IETESTCD" OrderNumber="3" Mandatory="Yes" Role="Topic" RoleCodeListOID="CodeList.ROLECODE"/>
                
                <ItemRef ItemOID="TI.IETEST" OrderNumber="4" Mandatory="Yes" Role="Synonym Qualifier" RoleCodeListOID="CodeList.ROLECODE"/>
                
                <ItemRef ItemOID="TI.IECAT" OrderNumber="5" Mandatory="Yes" Role="Grouping Qualifier" RoleCodeListOID="CodeList.ROLECODE"/>
                
                <ItemRef ItemOID="TI.IESCAT" OrderNumber="6" Mandatory="No" Role="Grouping Qualifier" RoleCodeListOID="CodeList.ROLECODE"/>
                
                <ItemRef ItemOID="TI.TIRL" OrderNumber="7" Mandatory="No" Role="Rule" RoleCodeListOID="CodeList.ROLECODE"/>
                
                <ItemRef ItemOID="TI.TIVERS" OrderNumber="8" Mandatory="No" Role="Record Qualifier" RoleCodeListOID="CodeList.ROLECODE"/>
                
                <def:leaf ID="Location.TI" xlink:href="./TI.xpt">
                    <def:title>./TI.xpt </def:title>
                </def:leaf>
            </ItemGroupDef>
       
            <ItemGroupDef OID="TS" Name="TS" Repeating="Yes" Purpose="Tabulation " IsReferenceData="Yes" def:Label="Trial Summary" def:Structure="One record per trial summary parameter value" def:DomainKeys="STUDYID, TSSEQ" def:Class="Trial Design" def:ArchiveLocationID="Location../ts">
                
                <ItemRef ItemOID="STUDYID" OrderNumber="1" Mandatory="Yes" Role="Identifier" RoleCodeListOID="CodeList.ROLECODE"/>
                
                <ItemRef ItemOID="DOMAIN" OrderNumber="2" Mandatory="Yes" Role="Identifier" RoleCodeListOID="CodeList.ROLECODE"/>
                
                <ItemRef ItemOID="TS.TSSEQ" OrderNumber="3" Mandatory="Yes" Role="Identifier " RoleCodeListOID="CodeList.ROLECODE"/>
                
                <ItemRef ItemOID="TS.TSGRPID" OrderNumber="4" Mandatory="No" Role="Identifier" RoleCodeListOID="CodeList.ROLECODE"/>
                
                <ItemRef ItemOID="TS.TSPARMCD" OrderNumber="5" Mandatory="Yes" Role="Topic" RoleCodeListOID="CodeList.ROLECODE"/>
                
                <ItemRef ItemOID="TS.TSPARM" OrderNumber="6" Mandatory="Yes" Role="Synonym Qualifier" RoleCodeListOID="CodeList.ROLECODE"/>
                
                <ItemRef ItemOID="TS.TSVAL" OrderNumber="7" Mandatory="Yes" Role="Result Qualifier" RoleCodeListOID="CodeList.ROLECODE"/>
                
                <def:leaf ID="Location.TS" xlink:href="./TS.xpt">
                    <def:title>./TS.xpt </def:title>
                </def:leaf>
            </ItemGroupDef>
       
            <ItemGroupDef OID="TV" Name="TV" Repeating="Yes" Purpose="Tabulation " IsReferenceData="Yes" def:Label="Trial Visits" def:Structure="One record per planned Visit per Arm" def:DomainKeys="STUDYID, VISITNUM, ARMCD" def:Class="Trial Design" def:ArchiveLocationID="Location../tv">
                
                <ItemRef ItemOID="STUDYID" OrderNumber="1" Mandatory="Yes" Role="Identifier" RoleCodeListOID="CodeList.ROLECODE"/>
                
                <ItemRef ItemOID="DOMAIN" OrderNumber="2" Mandatory="Yes" Role="Identifier" RoleCodeListOID="CodeList.ROLECODE"/>
                
                <ItemRef ItemOID="TV.VISITNUM" OrderNumber="3" Mandatory="Yes" Role="Topic" RoleCodeListOID="CodeList.ROLECODE"/>
                
                <ItemRef ItemOID="TV.VISIT" OrderNumber="4" Mandatory="No" Role="Synonym Qualifier" RoleCodeListOID="CodeList.ROLECODE"/>
                
                <ItemRef ItemOID="TV.ARMCD" OrderNumber="5" Mandatory="No" Role="Record Qualifier" RoleCodeListOID="CodeList.ROLECODE"/>
                
                <ItemRef ItemOID="TV.ARM" OrderNumber="6" Mandatory="No" Role="Synonym Qualifier" RoleCodeListOID="CodeList.ROLECODE"/>
                
                <ItemRef ItemOID="TV.TVSTRL" OrderNumber="7" Mandatory="Yes" Role="Rule" RoleCodeListOID="CodeList.ROLECODE"/>
                
                <ItemRef ItemOID="TV.TVENRL" OrderNumber="8" Mandatory="No" Role="Rule" RoleCodeListOID="CodeList.ROLECODE"/>
                
                <def:leaf ID="Location.TV" xlink:href="./TV.xpt">
                    <def:title>./TV.xpt </def:title>
                </def:leaf>
            </ItemGroupDef>
       
            <ItemGroupDef OID="XP" Name="XP" Repeating="Yes" Purpose="Tabulation" IsReferenceData="No" def:Label="Pain Scores" def:Structure="One record per subject per visit" def:DomainKeys="STUDYID, USUBJID, XPTESTCD, VISITNUM" def:Class="Findings" def:ArchiveLocationID="Location../xp">
                
                <ItemRef ItemOID="STUDYID" OrderNumber="1" Mandatory="Yes" Role="Identifier" RoleCodeListOID="CodeList.ROLECODE"/>
                
                <ItemRef ItemOID="DOMAIN" OrderNumber="2" Mandatory="Yes" Role="Identifier" RoleCodeListOID="CodeList.ROLECODE"/>
                
                <ItemRef ItemOID="USUBJID" OrderNumber="3" Mandatory="Yes" Role="Identifier" RoleCodeListOID="CodeList.ROLECODE"/>
                
                <ItemRef ItemOID="XP.XPSEQ" OrderNumber="4" Mandatory="Yes" Role="Identifier" RoleCodeListOID="CodeList.ROLECODE"/>
                
                <ItemRef ItemOID="XP.XPTESTCD" OrderNumber="5" Mandatory="Yes" Role="Topic" RoleCodeListOID="CodeList.ROLECODE"/>
                
                <ItemRef ItemOID="XP.XPTEST" OrderNumber="6" Mandatory="Yes" Role="Synonym Qualifier" RoleCodeListOID="CodeList.ROLECODE"/>
                
                <ItemRef ItemOID="XP.XPORRES" OrderNumber="7" Mandatory="No" Role="Result Qualifier" RoleCodeListOID="CodeList.ROLECODE"/>
                
                <ItemRef ItemOID="XP.XPSTRESC" OrderNumber="8" Mandatory="No" Role="Result Qualifier" RoleCodeListOID="CodeList.ROLECODE"/>
                
                <ItemRef ItemOID="XP.XPSTRESN" OrderNumber="9" Mandatory="No" Role="Result Qualifier" RoleCodeListOID="CodeList.ROLECODE"/>
                
                <ItemRef ItemOID="XP.VISITNUM" OrderNumber="10" Mandatory="No" Role="Timing" RoleCodeListOID="CodeList.ROLECODE"/>
                
                <ItemRef ItemOID="XP.VISIT" OrderNumber="11" Mandatory="No" Role="Timing" RoleCodeListOID="CodeList.ROLECODE"/>
                
                <ItemRef ItemOID="XP.XPDTC" OrderNumber="12" Mandatory="No" Role="Timing" RoleCodeListOID="CodeList.ROLECODE"/>
                
                <ItemRef ItemOID="XP.XPDY" OrderNumber="13" Mandatory="No" Role="Timing" RoleCodeListOID="CodeList.ROLECODE"/>
                
                <def:leaf ID="Location.XP" xlink:href="./XP.xpt">
                    <def:title>./XP.xpt </def:title>
                </def:leaf>
            </ItemGroupDef>
    


            <!-- ************************************************************ -->
            <!-- The details of each variable is here for all domains         -->
            <!-- ************************************************************ -->
    
       <ItemDef OID="STUDYID" Name="STUDYID" DataType="text" Length="15" Origin="Derived" Comment="nan" def:Label="Study Identifier">
     
        
        
       </ItemDef>

    
       <ItemDef OID="DOMAIN" Name="DOMAIN" DataType="text" Length="2" Origin="Derived" Comment="nan" def:Label="Domain Abbreviation">
     
        
        
       </ItemDef>

    
       <ItemDef OID="USUBJID" Name="USUBJID" DataType="text" Length="25" Origin="Derived" Comment="nan" def:Label="Unique Subject Identifier">
     
        
        
       </ItemDef>

    
       <ItemDef OID="AE.AESEQ" Name="AESEQ" DataType="integer" Length="8" Origin="Derived" Comment="nan" def:Label="Sequence Number">
     
        
        
       </ItemDef>

    
       <ItemDef OID="AE.AETERM" Name="AETERM" DataType="text" Length="200" Origin="CRF page 6" Comment="nan" def:Label="Reported Term for the Adverse Event">
     
        
        
       </ItemDef>

    
       <ItemDef OID="AE.AEDECOD" Name="AEDECOD" DataType="text" Length="200" Origin="Derived" Comment="nan" def:Label="Dictionary-Derived Term">
     
        
              <CodeListRef CodeListOID="CodeList.AEDECOD"/>
        
        
       </ItemDef>

    
       <ItemDef OID="AE.AEBODSYS" Name="AEBODSYS" DataType="text" Length="200" Origin="Derived" Comment="nan" def:Label="Body System or Organ Class">
     
        
              <CodeListRef CodeListOID="CodeList.AEBODSYS"/>
        
        
       </ItemDef>

    
       <ItemDef OID="AE.AESEV" Name="AESEV" DataType="text" Length="40" Origin="CRF page 6" Comment="nan" def:Label="Severity/Intensity">
     
        
              <CodeListRef CodeListOID="CodeList.AESEV"/>
        
        
       </ItemDef>

    
       <ItemDef OID="AE.AESER" Name="AESER" DataType="text" Length="40" Origin="CRF page 6" Comment="nan" def:Label="Serious Event">
     
        
              <CodeListRef CodeListOID="CodeList.NY"/>
        
        
       </ItemDef>

    
       <ItemDef OID="AE.AEACN" Name="AEACN" DataType="text" Length="40" Origin="CRF page 6" Comment="nan" def:Label="Action Taken with Study Treatment">
     
        
              <CodeListRef CodeListOID="CodeList.ACN"/>
        
        
       </ItemDef>

    
       <ItemDef OID="AE.AEREL" Name="AEREL" DataType="text" Length="40" Origin="CRF page 6" Comment="nan" def:Label="Causality">
     
        
              <CodeListRef CodeListOID="CodeList.AEREL"/>
        
        
       </ItemDef>

    
       <ItemDef OID="AE.AESTDTC" Name="AESTDTC" DataType="date" Length="16" Origin="CRF page 6" Comment="nan" def:Label="Start Date/Time of Adverse Event">
     
        
        
       </ItemDef>

    
       <ItemDef OID="AE.AEENDTC" Name="AEENDTC" DataType="date" Length="16" Origin="CRF page 6" Comment="nan" def:Label="End Date/Time of Adverse Event">
     
        
        
       </ItemDef>

    
       <ItemDef OID="AE.AESTDY" Name="AESTDY" DataType="integer" Length="8" Origin="Derived" Comment="nan" def:Label="Study Day of Start of Adverse Event">
     
        
        
       </ItemDef>

    
       <ItemDef OID="AE.AEENDY" Name="AEENDY" DataType="integer" Length="8" Origin="Derived" Comment="nan" def:Label="Study Day of End of Adverse Event">
     
        
        
       </ItemDef>

    
       <ItemDef OID="STUDYID" Name="STUDYID" DataType="text" Length="15" Origin="Derived" Comment="nan" def:Label="Study Identifier">
     
        
        
       </ItemDef>

    
       <ItemDef OID="DOMAIN" Name="DOMAIN" DataType="text" Length="2" Origin="Derived" Comment="nan" def:Label="Domain Abbreviation">
     
        
        
       </ItemDef>

    
       <ItemDef OID="USUBJID" Name="USUBJID" DataType="text" Length="25" Origin="Derived" Comment="nan" def:Label="Unique Subject Identifier">
     
        
        
       </ItemDef>

    
       <ItemDef OID="SUBJID" Name="SUBJID" DataType="text" Length="7" Origin="CRF page 1" Comment="nan" def:Label="Subject Identifier for the Study">
     
        
        
       </ItemDef>

    
       <ItemDef OID="DM.RFSTDTC" Name="RFSTDTC" DataType="date" Length="16" Origin="CRF page 1" Comment="nan" def:Label="Subject Reference Start Date/Time">
     
        
        
       </ItemDef>

    
       <ItemDef OID="DM.RFENDTC" Name="RFENDTC" DataType="date" Length="16" Origin="Derived" Comment="nan" def:Label="Subject Reference End Date/Time">
     
        
        
       </ItemDef>

    
       <ItemDef OID="DM.SITEID" Name="SITEID" DataType="text" Length="7" Origin="CRF page 1" Comment="nan" def:Label="Study Site Identifier">
     
        
        
       </ItemDef>

    
       <ItemDef OID="DM.BRTHDTC" Name="BRTHDTC" DataType="date" Length="16" Origin="CRF page 1" Comment="nan" def:Label="Date/Time of Birth">
     
        
        
       </ItemDef>

    
       <ItemDef OID="DM.AGE" Name="AGE" DataType="integer" Length="8" def:DisplayFormat="3.0" def:ComputationMethodOID="AGECALCULATION" Origin="Derived" Comment="nan" def:Label="Age">
     
        
        
       </ItemDef>

    
       <ItemDef OID="DM.AGEU" Name="AGEU" DataType="text" Length="5" Origin="Derived" Comment="nan" def:Label="Age Units">
     
        
              <CodeListRef CodeListOID="CodeList.AGEU"/>
        
        
       </ItemDef>

    
       <ItemDef OID="DM.SEX" Name="SEX" DataType="text" Length="2" Origin="CRF page 1" Comment="nan" def:Label="Sex">
     
        
              <CodeListRef CodeListOID="CodeList.SEX"/>
        
        
       </ItemDef>

    
       <ItemDef OID="DM.RACE" Name="RACE" DataType="text" Length="40" Origin="CRF page 1" Comment="nan" def:Label="Race">
     
        
              <CodeListRef CodeListOID="CodeList.RACE"/>
        
        
       </ItemDef>

    
       <ItemDef OID="DM.ARMCD" Name="ARMCD" DataType="text" Length="8" Origin="IVRS data" Comment="nan" def:Label="Planned Arm Code">
     
        
              <CodeListRef CodeListOID="CodeList.ARMCD"/>
        
        
       </ItemDef>

    
       <ItemDef OID="DM.ARM" Name="ARM" DataType="text" Length="40" Origin="IVRS data" Comment="nan" def:Label="Description of Planned Arm">
     
        
              <CodeListRef CodeListOID="CodeList.ARM"/>
        
        
       </ItemDef>

    
       <ItemDef OID="DM.COUNTRY" Name="COUNTRY" DataType="text" Length="3" Origin="Derived" Comment="nan" def:Label="Country">
     
        
              <CodeListRef CodeListOID="CodeList.COUNTRY"/>
        
        
       </ItemDef>

    
       <ItemDef OID="STUDYID" Name="STUDYID" DataType="text" Length="15" Origin="Derived" Comment="nan" def:Label="Study Identifier">
     
        
        
       </ItemDef>

    
       <ItemDef OID="DOMAIN" Name="DOMAIN" DataType="text" Length="2" Origin="Derived" Comment="nan" def:Label="Domain Abbreviation">
     
        
        
       </ItemDef>

    
       <ItemDef OID="USUBJID" Name="USUBJID" DataType="text" Length="25" Origin="Derived" Comment="nan" def:Label="Unique Subject Identifier">
     
        
        
       </ItemDef>

    
       <ItemDef OID="EX.EXSEQ" Name="EXSEQ" DataType="integer" Length="8" Origin="Derived" Comment="nan" def:Label="Sequence Number">
     
        
        
       </ItemDef>

    
       <ItemDef OID="EX.EXTRT" Name="EXTRT" DataType="text" Length="40" Origin="Derived" Comment="nan" def:Label="Name of Actual Treatment">
     
        
        
       </ItemDef>

    
       <ItemDef OID="EX.EXDOSE" Name="EXDOSE" DataType="integer" Length="8" Origin="CRF Page 4" Comment="nan" def:Label="Dose per Administration">
     
        
        
       </ItemDef>

    
       <ItemDef OID="EX.EXDOSU" Name="EXDOSU" DataType="text" Length="40" Origin="Derived" Comment="nan" def:Label="Dose Units">
     
        
              <CodeListRef CodeListOID="CodeList.UNIT"/>
        
        
       </ItemDef>

    
       <ItemDef OID="EX.EXDOSFRM" Name="EXDOSFRM" DataType="text" Length="40" Origin="Derived" Comment="nan" def:Label="Dose Form">
     
        
              <CodeListRef CodeListOID="CodeList.FRM"/>
        
        
       </ItemDef>

    
       <ItemDef OID="EX.EXDOSTOT" Name="EXDOSTOT" DataType="integer" Length="8" Origin="CRF Page 4" Comment="nan" def:Label="Total Daily Dose">
     
        
        
       </ItemDef>

    
       <ItemDef OID="EX.EXSTDTC" Name="EXSTDTC" DataType="date" Length="16" Origin="CRF Page 4" Comment="nan" def:Label="Start Date/Time of Treatment">
     
        
        
       </ItemDef>

    
       <ItemDef OID="EX.EXENDTC" Name="EXENDTC" DataType="date" Length="16" Origin="CRF Page 4" Comment="nan" def:Label="End Date/Time of Treatment">
     
        
        
       </ItemDef>

    
       <ItemDef OID="EX.EXSTDY" Name="EXSTDY" DataType="integer" Length="8" Origin="Derived" Comment="nan" def:Label="Study Day of Start of Treatment">
     
        
        
       </ItemDef>

    
       <ItemDef OID="EX.EXENDY" Name="EXENDY" DataType="integer" Length="8" Origin="Derived" Comment="nan" def:Label="Study Day of End of Treatment">
     
        
        
       </ItemDef>

    
       <ItemDef OID="STUDYID" Name="STUDYID" DataType="text" Length="15" Origin="Derived" Comment="nan" def:Label="Study Identifier">
     
        
        
       </ItemDef>

    
       <ItemDef OID="SUPPDM.RDOMAIN" Name="RDOMAIN" DataType="text" Length="2" Origin="Derived" Comment="nan" def:Label="Related Domain Abbreviation">
     
        
        
       </ItemDef>

    
       <ItemDef OID="USUBJID" Name="USUBJID" DataType="text" Length="25" Origin="Derived" Comment="nan" def:Label="Unique Subject Identifier">
     
        
        
       </ItemDef>

    
       <ItemDef OID="SUPPDM.IDVAR" Name="IDVAR" DataType="text" Length="8" Origin="Derived" Comment="nan" def:Label="Identifying Variable">
     
        
        
       </ItemDef>

    
       <ItemDef OID="SUPPDM.IDVARVAL" Name="IDVARVAL" DataType="text" Length="200" Origin="Derived" Comment="nan" def:Label="Identifying Variable Value">
     
        
        
       </ItemDef>

    
       <ItemDef OID="SUPPDM.QNAM" Name="QNAM" DataType="text" Length="8" Origin="Derived" Comment="nan" def:Label="Qualifier Variable Name">
     
        
        
       </ItemDef>

    
       <ItemDef OID="SUPPDM.QLABEL" Name="QLABEL" DataType="text" Length="40" Origin="Derived" Comment="nan" def:Label="Qualifier Variable Label">
     
        
        
       </ItemDef>

    
       <ItemDef OID="SUPPDM.QVAL" Name="QVAL" DataType="text" Length="200" Origin="CRF Page 1" Comment="nan" def:Label="Data Value">
     
        
        
       </ItemDef>

    
       <ItemDef OID="SUPPDM.QORIG" Name="QORIG" DataType="text" Length="8" Origin="Derived" Comment="nan" def:Label="Origin">
     
        
        
       </ItemDef>

    
       <ItemDef OID="SUPPDM.QEVAL" Name="QEVAL" DataType="text" Length="8" Origin="Derived" Comment="nan" def:Label="Evaluator">
     
        
        
       </ItemDef>

    
       <ItemDef OID="STUDYID" Name="STUDYID" DataType="text" Length="15" Origin="Derived" Comment="nan" def:Label="Study Identifier">
     
        
        
       </ItemDef>

    
       <ItemDef OID="DOMAIN" Name="DOMAIN" DataType="text" Length="2" Origin="Derived" Comment="nan" def:Label="Domain Abbreviation">
     
        
        
       </ItemDef>

    
       <ItemDef OID="USUBJID" Name="USUBJID" DataType="text" Length="25" Origin="Derived" Comment="nan" def:Label="Unique Subject Identifier">
     
        
        
       </ItemDef>

    
       <ItemDef OID="LB.LBSEQ" Name="LBSEQ" DataType="integer" Length="8" Origin="Derived" Comment="nan" def:Label="Sequence Number">
     
        
        
       </ItemDef>

    
       <ItemDef OID="LB.LBTESTCD" Name="LBTESTCD" DataType="text" Length="8" Origin="Derived" Comment="nan" def:Label="Lab Test or Examination Short Name">
     
        
              <CodeListRef CodeListOID="CodeList.LBTESTCD"/>
        
        
              <def:ValueListRef ValueListOID="LBTESTCDVALUE"/>
        
       </ItemDef>

    
       <ItemDef OID="LB.LBTEST" Name="LBTEST" DataType="text" Length="40" Origin="Derived" Comment="nan" def:Label="Lab Test or Examination Name">
     
        
              <CodeListRef CodeListOID="CodeList.LBTEST"/>
        
        
       </ItemDef>

    
       <ItemDef OID="LB.LBCAT" Name="LBCAT" DataType="text" Length="200" Origin="Derived" Comment="nan" def:Label="Category for Lab Test">
     
        
              <CodeListRef CodeListOID="CodeList.LBCAT"/>
        
        
       </ItemDef>

    
       <ItemDef OID="LB.LBORRES" Name="LBORRES" DataType="text" Length="200" Origin="Central laboratory" Comment="nan" def:Label="Result or Finding in Original Units">
     
        
        
       </ItemDef>

    
       <ItemDef OID="LB.LBORRESU" Name="LBORRESU" DataType="text" Length="200" Origin="Central laboratory" Comment="nan" def:Label="Original Units">
     
        
              <CodeListRef CodeListOID="CodeList.UNIT"/>
        
        
       </ItemDef>

    
       <ItemDef OID="LB.LBORNRLO" Name="LBORNRLO" DataType="text" Length="200" Origin="Central laboratory" Comment="nan" def:Label="Reference Range Lower Limit in Orig Unit">
     
        
        
       </ItemDef>

    
       <ItemDef OID="LB.LBORNRHI" Name="LBORNRHI" DataType="text" Length="200" Origin="Central laboratory" Comment="nan" def:Label="Reference Range Upper Limit in Orig Unit">
     
        
        
       </ItemDef>

    
       <ItemDef OID="LB.LBSTRESC" Name="LBSTRESC" DataType="text" Length="200" Origin="Derived" Comment="nan" def:Label="Character Result/Finding in Std Format">
     
        
        
       </ItemDef>

    
       <ItemDef OID="LB.LBSTRESN" Name="LBSTRESN" DataType="float" Length="8" Origin="Derived" Comment="nan" def:Label="Numeric Result/Finding in Standard Units">
     
        
        
       </ItemDef>

    
       <ItemDef OID="LB.LBSTRESU" Name="LBSTRESU" DataType="text" Length="200" Origin="Derived" Comment="nan" def:Label="Standard Units">
     
        
              <CodeListRef CodeListOID="CodeList.UNIT"/>
        
        
       </ItemDef>

    
       <ItemDef OID="LB.LBSTNRLO" Name="LBSTNRLO" DataType="float" Length="8" Origin="Derived" Comment="nan" def:Label="Reference Range Lower Limit-Std Units">
     
        
        
       </ItemDef>

    
       <ItemDef OID="LB.LBSTNRHI" Name="LBSTNRHI" DataType="float" Length="8" Origin="Derived" Comment="nan" def:Label="Reference Range Upper Limit-Std Units">
     
        
        
       </ItemDef>

    
       <ItemDef OID="LB.LBNRIND" Name="LBNRIND" DataType="text" Length="40" Origin="Derived" Comment="nan" def:Label="Reference Range Indicator">
     
        
              <CodeListRef CodeListOID="CodeList.LBNRIND"/>
        
        
       </ItemDef>

    
       <ItemDef OID="LB.LBBLFL" Name="LBBLFL" DataType="text" Length="2" Origin="Derived" Comment="nan" def:Label="Baseline Flag">
     
        
              <CodeListRef CodeListOID="CodeList.NY"/>
        
        
       </ItemDef>

    
       <ItemDef OID="LB.VISITNUM" Name="VISITNUM" DataType="integer" Length="8" Origin="Derived" Comment="nan" def:Label="Visit Number">
     
        
        
       </ItemDef>

    
       <ItemDef OID="LB.VISIT" Name="VISIT" DataType="text" Length="200" Origin="Central laboratory" Comment="nan" def:Label="Visit Name">
     
        
              <CodeListRef CodeListOID="CodeList.VISIT"/>
        
        
       </ItemDef>

    
       <ItemDef OID="LB.LBDTC" Name="LBDTC" DataType="date" Length="16" Origin="Central laboratory" Comment="nan" def:Label="Date/Time of Specimen Collection">
     
        
        
       </ItemDef>

    
       <ItemDef OID="LB.LBDY" Name="LBDY" DataType="integer" Length="8" Origin="Derived" Comment="nan" def:Label="Study Day of Specimen Collection">
     
        
        
       </ItemDef>

    
       <ItemDef OID="STUDYID" Name="STUDYID" DataType="text" Length="15" Origin="Derived" Comment="nan" def:Label="Study Identifier">
     
        
        
       </ItemDef>

    
       <ItemDef OID="DOMAIN" Name="DOMAIN" DataType="text" Length="2" Origin="Derived" Comment="nan" def:Label="Domain Abbreviation">
     
        
        
       </ItemDef>

    
       <ItemDef OID="TA.ARMCD" Name="ARMCD" DataType="text" Length="8" Origin="Derived" Comment="nan" def:Label="Planned Arm Code ">
     
        
              <CodeListRef CodeListOID="CodeList.ARMCD"/>
        
        
       </ItemDef>

    
       <ItemDef OID="TA.ARM" Name="ARM" DataType="text" Length="40" Origin="Derived" Comment="nan" def:Label="Description of Planned Arm ">
     
        
              <CodeListRef CodeListOID="CodeList.ARM"/>
        
        
       </ItemDef>

    
       <ItemDef OID="TA.TAETORD" Name="TAETORD" DataType="integer" Length="8" Origin="Derived" Comment="nan" def:Label="Order of Element within Arm">
     
        
        
       </ItemDef>

    
       <ItemDef OID="TA.ETCD" Name="ETCD" DataType="text" Length="8" Origin="Derived" Comment="nan" def:Label="Element Code">
     
        
        
       </ItemDef>

    
       <ItemDef OID="TA.ELEMENT" Name="ELEMENT" DataType="text" Length="40" Origin="Derived" Comment="nan" def:Label="Description of Element">
     
        
        
       </ItemDef>

    
       <ItemDef OID="TA.TABRANCH" Name="TABRANCH" DataType="text" Length="200" Origin="Derived" Comment="nan" def:Label="Branch">
     
        
        
       </ItemDef>

    
       <ItemDef OID="TA.TATRANS" Name="TATRANS" DataType="text" Length="200" Origin="Derived" Comment="nan" def:Label="Transition Rule">
     
        
        
       </ItemDef>

    
       <ItemDef OID="TA.EPOCH" Name="EPOCH" DataType="text" Length="200" Origin="Derived" Comment="nan" def:Label="Epoch">
     
        
        
       </ItemDef>

    
       <ItemDef OID="STUDYID" Name="STUDYID" DataType="text" Length="15" Origin="Derived" Comment="nan" def:Label="Study Identifier">
     
        
        
       </ItemDef>

    
       <ItemDef OID="DOMAIN" Name="DOMAIN" DataType="text" Length="2" Origin="Derived" Comment="nan" def:Label="Domain Abbreviation">
     
        
        
       </ItemDef>

    
       <ItemDef OID="TE.ETCD" Name="ETCD" DataType="text" Length="8" Origin="Derived" Comment="nan" def:Label="Element Code">
     
        
        
       </ItemDef>

    
       <ItemDef OID="TE.ELEMENT" Name="ELEMENT" DataType="text" Length="40" Origin="Derived" Comment="nan" def:Label="Description of Element">
     
        
        
       </ItemDef>

    
       <ItemDef OID="TE.TESTRL" Name="TESTRL" DataType="text" Length="200" Origin="Derived" Comment="nan" def:Label="Rule for Start of Element">
     
        
        
       </ItemDef>

    
       <ItemDef OID="TE.TEENRL" Name="TEENRL" DataType="text" Length="200" Origin="Derived" Comment="nan" def:Label="Rule for End of Element">
     
        
        
       </ItemDef>

    
       <ItemDef OID="TE.TEDUR" Name="TEDUR" DataType="text" Length="40" Origin="Derived" Comment="nan" def:Label="Planned Duration of Element">
     
        
        
       </ItemDef>

    
       <ItemDef OID="STUDYID" Name="STUDYID" DataType="text" Length="15" Origin="Derived" Comment="nan" def:Label="Study Identifier">
     
        
        
       </ItemDef>

    
       <ItemDef OID="DOMAIN" Name="DOMAIN" DataType="text" Length="2" Origin="Derived" Comment="nan" def:Label="Domain Abbreviation">
     
        
        
       </ItemDef>

    
       <ItemDef OID="TI.IETESTCD" Name="IETESTCD" DataType="text" Length="8" Origin="Derived" Comment="nan" def:Label="Incl/Excl Criterion Short Name">
     
        
        
       </ItemDef>

    
       <ItemDef OID="TI.IETEST" Name="IETEST" DataType="text" Length="200" Origin="Derived" Comment="nan" def:Label="Inclusion/Exclusion Criterion">
     
        
        
       </ItemDef>

    
       <ItemDef OID="TI.IECAT" Name="IECAT" DataType="text" Length="200" Origin="Derived" Comment="nan" def:Label="Inclusion/Exclusion Category">
     
        
              <CodeListRef CodeListOID="CodeList.IECAT"/>
        
        
       </ItemDef>

    
       <ItemDef OID="TI.IESCAT" Name="IESCAT" DataType="text" Length="200" Origin="Derived" Comment="nan" def:Label="Inclusion/Exclusion Subcategory">
     
        
        
       </ItemDef>

    
       <ItemDef OID="TI.TIRL" Name="TIRL" DataType="text" Length="200" Origin="Derived" Comment="nan" def:Label="Inclusion/Exclusion Criterion Rule">
     
        
        
       </ItemDef>

    
       <ItemDef OID="TI.TIVERS" Name="TIVERS" DataType="text" Length="200" Origin="Derived" Comment="nan" def:Label="Protocol Criteria Versions">
     
        
        
       </ItemDef>

    
       <ItemDef OID="STUDYID" Name="STUDYID" DataType="text" Length="15" Origin="Derived" Comment="nan" def:Label="Study Identifier">
     
        
        
       </ItemDef>

    
       <ItemDef OID="DOMAIN" Name="DOMAIN" DataType="text" Length="2" Origin="Derived" Comment="nan" def:Label="Domain Abbreviation">
     
        
        
       </ItemDef>

    
       <ItemDef OID="TS.TSSEQ" Name="TSSEQ" DataType="integer" Length="8" Origin="Derived" Comment="nan" def:Label="Sequence Number ">
     
        
        
       </ItemDef>

    
       <ItemDef OID="TS.TSGRPID" Name="TSGRPID" DataType="text" Length="40" Origin="Derived" Comment="nan" def:Label="Group ID">
     
        
        
       </ItemDef>

    
       <ItemDef OID="TS.TSPARMCD" Name="TSPARMCD" DataType="text" Length="8" Origin="Derived" Comment="nan" def:Label="Trial Summary Parameter Short Name">
     
        
              <CodeListRef CodeListOID="CodeList.TSPARMCD"/>
        
        
       </ItemDef>

    
       <ItemDef OID="TS.TSPARM" Name="TSPARM" DataType="text" Length="200" Origin="Derived" Comment="nan" def:Label="Trial Summary Parameter ">
     
        
              <CodeListRef CodeListOID="CodeList.TSPARM"/>
        
        
       </ItemDef>

    
       <ItemDef OID="TS.TSVAL" Name="TSVAL" DataType="text" Length="200" Origin="Derived" Comment="nan" def:Label="Parameter Value">
     
        
        
       </ItemDef>

    
       <ItemDef OID="STUDYID" Name="STUDYID" DataType="text" Length="15" Origin="Derived" Comment="nan" def:Label="Study Identifier">
     
        
        
       </ItemDef>

    
       <ItemDef OID="DOMAIN" Name="DOMAIN" DataType="text" Length="2" Origin="Derived" Comment="nan" def:Label="Domain Abbreviation">
     
        
        
       </ItemDef>

    
       <ItemDef OID="TV.VISITNUM" Name="VISITNUM" DataType="integer" Length="8" Origin="Derived" Comment="nan" def:Label="Visit Number">
     
        
        
       </ItemDef>

    
       <ItemDef OID="TV.VISIT" Name="VISIT" DataType="text" Length="200" Origin="Derived" Comment="nan" def:Label="Visit Name">
     
        
        
       </ItemDef>

    
       <ItemDef OID="TV.ARMCD" Name="ARMCD" DataType="text" Length="8" Origin="Derived" Comment="nan" def:Label="Planned Arm Code ">
     
        
              <CodeListRef CodeListOID="CodeList.ARMCD"/>
        
        
       </ItemDef>

    
       <ItemDef OID="TV.ARM" Name="ARM" DataType="text" Length="40" Origin="Derived" Comment="nan" def:Label="Description of Planned Arm">
     
        
              <CodeListRef CodeListOID="CodeList.ARM"/>
        
        
       </ItemDef>

    
       <ItemDef OID="TV.TVSTRL" Name="TVSTRL" DataType="text" Length="200" Origin="Derived" Comment="nan" def:Label="Visit Start Rule">
     
        
        
       </ItemDef>

    
       <ItemDef OID="TV.TVENRL" Name="TVENRL" DataType="text" Length="200" Origin="Derived" Comment="nan" def:Label="Visit End Rule">
     
        
        
       </ItemDef>

    
       <ItemDef OID="STUDYID" Name="STUDYID" DataType="text" Length="15" Origin="Derived" Comment="nan" def:Label="Study Identifier">
     
        
        
       </ItemDef>

    
       <ItemDef OID="DOMAIN" Name="DOMAIN" DataType="text" Length="2" Origin="Derived" Comment="nan" def:Label="Domain Abbreviation">
     
        
        
       </ItemDef>

    
       <ItemDef OID="USUBJID" Name="USUBJID" DataType="text" Length="25" Origin="Derived" Comment="nan" def:Label="Unique Subject Identifier">
     
        
        
       </ItemDef>

    
       <ItemDef OID="XP.XPSEQ" Name="XPSEQ" DataType="integer" Length="8" Origin="Derived" Comment="nan" def:Label="Sequence Number">
     
        
        
       </ItemDef>

    
       <ItemDef OID="XP.XPTESTCD" Name="XPTESTCD" DataType="text" Length="8" Origin="Derived" Comment="nan" def:Label="Pain Test Short Name">
     
        
              <CodeListRef CodeListOID="CodeList.XPTESTCD"/>
        
        
       </ItemDef>

    
       <ItemDef OID="XP.XPTEST" Name="XPTEST" DataType="text" Length="40" Origin="Derived" Comment="nan" def:Label="Pain Test Name">
     
        
              <CodeListRef CodeListOID="CodeList.XPTEST"/>
        
        
       </ItemDef>

    
       <ItemDef OID="XP.XPORRES" Name="XPORRES" DataType="text" Length="200" Origin="CRF Page 5" Comment="nan" def:Label="Result or Finding in Original Units">
     
        
        
       </ItemDef>

    
       <ItemDef OID="XP.XPSTRESC" Name="XPSTRESC" DataType="text" Length="200" Origin="Derived" Comment="nan" def:Label="Result or Finding in Standard Format">
     
        
        
       </ItemDef>

    
       <ItemDef OID="XP.XPSTRESN" Name="XPSTRESN" DataType="integer" Length="8" Origin="Derived" Comment="nan" def:Label="Numeric Result/Finding in Standard Units">
     
        
        
       </ItemDef>

    
       <ItemDef OID="XP.VISITNUM" Name="VISITNUM" DataType="integer" Length="8" Origin="Derived" Comment="nan" def:Label="Visit Number">
     
        
        
       </ItemDef>

    
       <ItemDef OID="XP.VISIT" Name="VISIT" DataType="text" Length="200" Origin="CRF Page 5" Comment="nan" def:Label="Visit Name">
     
        
              <CodeListRef CodeListOID="CodeList.VISIT"/>
        
        
       </ItemDef>

    
       <ItemDef OID="XP.XPDTC" Name="XPDTC" DataType="date" Length="16" Origin="CRF Page 5" Comment="nan" def:Label="Date/Time of  Collection">
     
        
        
       </ItemDef>

    
       <ItemDef OID="XP.XPDY" Name="XPDY" DataType="integer" Length="8" Origin="Derived" Comment="nan" def:Label="Study Day of  Collection">
     
        
        
       </ItemDef>

    


    
       <ItemDef OID="LBTESTCDVALUE.ALB" Name="ALB" DataType="float" Length="8" SignificantDigits="1" def:DisplayFormat="4.2" Origin="Central laboratory" Comment="nan" def:Label="Albumin; Microalbumin">
     
        
       </ItemDef>

    
       <ItemDef OID="LBTESTCDVALUE.ALP" Name="ALP" DataType="float" Length="8" def:DisplayFormat="3.0" Origin="Central laboratory" Comment="nan" def:Label="Alkaline Phosphatase">
     
        
       </ItemDef>

    
       <ItemDef OID="LBTESTCDVALUE.ALT" Name="ALT" DataType="float" Length="8" def:DisplayFormat="3.0" Origin="Central laboratory" Comment="nan" def:Label="Alanine Aminotransferase; SGPT">
     
        
       </ItemDef>

    
       <ItemDef OID="LBTESTCDVALUE.AST" Name="AST" DataType="float" Length="8" def:DisplayFormat="3.0" Origin="Central laboratory" Comment="nan" def:Label="Aspartate Aminotransferase; SGOT">
     
        
       </ItemDef>

    
       <ItemDef OID="LBTESTCDVALUE.BILDIR" Name="BILDIR" DataType="float" Length="8" SignificantDigits="1" def:DisplayFormat="4.2" Origin="Central laboratory" Comment="nan" def:Label="Direct Bilirubin">
     
        
       </ItemDef>

    
       <ItemDef OID="LBTESTCDVALUE.BILI" Name="BILI" DataType="float" Length="8" SignificantDigits="1" def:DisplayFormat="4.2" Origin="Central laboratory" Comment="nan" def:Label="Bilirubin; Total Bilirubin">
     
        
       </ItemDef>

    
       <ItemDef OID="LBTESTCDVALUE.GGT" Name="GGT" DataType="float" Length="8" def:DisplayFormat="3.0" Origin="Central laboratory" Comment="nan" def:Label="Gamma Glutamyl Transferase">
     
        
       </ItemDef>

    
       <ItemDef OID="LBTESTCDVALUE.HCT" Name="HCT" DataType="float" Length="8" def:DisplayFormat="3.0" Origin="Central laboratory" Comment="nan" def:Label="Hematocrit">
     
        
       </ItemDef>

    
       <ItemDef OID="LBTESTCDVALUE.HGB" Name="HGB" DataType="float" Length="8" SignificantDigits="1" def:DisplayFormat="5.2" Origin="Central laboratory" Comment="nan" def:Label="Hemoglobin">
     
        
       </ItemDef>

    
       <ItemDef OID="LBTESTCDVALUE.PROT" Name="PROT" DataType="float" Length="8" SignificantDigits="1" def:DisplayFormat="4.2" Origin="Central laboratory" Comment="nan" def:Label="Protein">
     
        
       </ItemDef>

    


    <!-- ************************************************************ -->
    <!-- Codelists are presented below                                -->
    <!-- ************************************************************ -->

          
        <CodeList OID="CodeList.ACN" Name="ACN" DataType="text">

        

                
                   <CodeListItem CodedValue="None" def:Rank="1.0">                 
                            <Decode>
                                  <TranslatedText>
                                        DOSE INCREASED
                                  </TranslatedText>
                            </Decode>    
                  </CodeListItem>                 
                 
               
                
        

                
                   <CodeListItem CodedValue="None" def:Rank="2.0">                 
                            <Decode>
                                  <TranslatedText>
                                        DOSE NOT CHANGED
                                  </TranslatedText>
                            </Decode>    
                  </CodeListItem>                 
                 
               
                
        

                
                   <CodeListItem CodedValue="None" def:Rank="3.0">                 
                            <Decode>
                                  <TranslatedText>
                                        DOSE REDUCED
                                  </TranslatedText>
                            </Decode>    
                  </CodeListItem>                 
                 
               
                
        

                
                   <CodeListItem CodedValue="None" def:Rank="4.0">                 
                            <Decode>
                                  <TranslatedText>
                                        DRUG INTERRUPTED
                                  </TranslatedText>
                            </Decode>    
                  </CodeListItem>                 
                 
               
                
        

                
                   <CodeListItem CodedValue="None" def:Rank="5.0">                 
                            <Decode>
                                  <TranslatedText>
                                        DRUG WITHDRAWN
                                  </TranslatedText>
                            </Decode>    
                  </CodeListItem>                 
                 
               
                
        

                
                   <CodeListItem CodedValue="None" def:Rank="6.0">                 
                            <Decode>
                                  <TranslatedText>
                                        nan
                                  </TranslatedText>
                            </Decode>    
                  </CodeListItem>                 
                 
               
                
        

                
                   <CodeListItem CodedValue="None" def:Rank="7.0">                 
                            <Decode>
                                  <TranslatedText>
                                        U; Unknown
                                  </TranslatedText>
                            </Decode>    
                  </CodeListItem>                 
                 
               
                
        

              </CodeList>

          
        <CodeList OID="CodeList.AEBODSYS" Name="AEBODSYS" DataType="text">

        

                
               
                
                  <ExternalCodeList Dictionary="None" Version="None"/>
                
        

              </CodeList>

          
        <CodeList OID="CodeList.AEDECOD" Name="AEDECOD" DataType="text">

        

                
               
                
                  <ExternalCodeList Dictionary="None" Version="None"/>
                
        

              </CodeList>

          
        <CodeList OID="CodeList.AEREL" Name="AEREL" DataType="text">

        

                
                   <CodeListItem CodedValue="None" def:Rank="1.0">                 
                            <Decode>
                                  <TranslatedText>
                                        NOT RELATED
                                  </TranslatedText>
                            </Decode>    
                  </CodeListItem>                 
                 
               
                
        

                
                   <CodeListItem CodedValue="None" def:Rank="2.0">                 
                            <Decode>
                                  <TranslatedText>
                                        POSSIBLY RELATED
                                  </TranslatedText>
                            </Decode>    
                  </CodeListItem>                 
                 
               
                
        

                
                   <CodeListItem CodedValue="None" def:Rank="3.0">                 
                            <Decode>
                                  <TranslatedText>
                                        PROBABLY RELATED
                                  </TranslatedText>
                            </Decode>    
                  </CodeListItem>                 
                 
               
                
        

              </CodeList>

          
        <CodeList OID="CodeList.AESEV" Name="AESEV" DataType="text">

        

                
                   <CodeListItem CodedValue="None" def:Rank="1.0">                 
                            <Decode>
                                  <TranslatedText>
                                        Grade 1; 1
                                  </TranslatedText>
                            </Decode>    
                  </CodeListItem>                 
                 
               
                
        

                
                   <CodeListItem CodedValue="None" def:Rank="2.0">                 
                            <Decode>
                                  <TranslatedText>
                                        Grade 2; 2
                                  </TranslatedText>
                            </Decode>    
                  </CodeListItem>                 
                 
               
                
        

                
                   <CodeListItem CodedValue="None" def:Rank="3.0">                 
                            <Decode>
                                  <TranslatedText>
                                        Grade 3; 3
                                  </TranslatedText>
                            </Decode>    
                  </CodeListItem>                 
                 
               
                
        

              </CodeList>

          
        <CodeList OID="CodeList.AGEU" Name="AGEU" DataType="text">

        

                
                   <CodeListItem CodedValue="None" def:Rank="1.0">                 
                            <Decode>
                                  <TranslatedText>
                                        YEARS
                                  </TranslatedText>
                            </Decode>    
                  </CodeListItem>                 
                 
               
                
        

              </CodeList>

          
        <CodeList OID="CodeList.ARM" Name="ARM" DataType="text">

        

                
                   <CodeListItem CodedValue="None" def:Rank="1.0">                 
                            <Decode>
                                  <TranslatedText>
                                        Analgezia HCL 30 mg
                                  </TranslatedText>
                            </Decode>    
                  </CodeListItem>                 
                 
               
                
        

                
                   <CodeListItem CodedValue="None" def:Rank="2.0">                 
                            <Decode>
                                  <TranslatedText>
                                        Placebo
                                  </TranslatedText>
                            </Decode>    
                  </CodeListItem>                 
                 
               
                
        

              </CodeList>

          
        <CodeList OID="CodeList.ARMCD" Name="ARMCD" DataType="text">

        

                
                   <CodeListItem CodedValue="None" def:Rank="1.0">                 
                            <Decode>
                                  <TranslatedText>
                                        Analgezia HCL 30 mg
                                  </TranslatedText>
                            </Decode>    
                  </CodeListItem>                 
                 
               
                
        

                
                   <CodeListItem CodedValue="None" def:Rank="2.0">                 
                            <Decode>
                                  <TranslatedText>
                                        Placebo
                                  </TranslatedText>
                            </Decode>    
                  </CodeListItem>                 
                 
               
                
        

              </CodeList>

          
        <CodeList OID="CodeList.COUNTRY" Name="COUNTRY" DataType="text">

        

                
                   <CodeListItem CodedValue="None" def:Rank="1.0">                 
                            <Decode>
                                  <TranslatedText>
                                        UNITED STATES
                                  </TranslatedText>
                            </Decode>    
                  </CodeListItem>                 
                 
               
                
        

              </CodeList>

          
        <CodeList OID="CodeList.FRM" Name="FRM" DataType="text">

        

                
                   <CodeListItem CodedValue="None" def:Rank="1.0">                 
                            <Decode>
                                  <TranslatedText>
                                        TABLET, COATED
                                  </TranslatedText>
                            </Decode>    
                  </CodeListItem>                 
                 
               
                
        

              </CodeList>

          
        <CodeList OID="CodeList.IECAT" Name="IECAT" DataType="text">

        

                
                   <CodeListItem CodedValue="None" def:Rank="1.0">                 
                            <Decode>
                                  <TranslatedText>
                                        INCLUSION
                                  </TranslatedText>
                            </Decode>    
                  </CodeListItem>                 
                 
               
                
        

                
                   <CodeListItem CodedValue="None" def:Rank="2.0">                 
                            <Decode>
                                  <TranslatedText>
                                        EXCLUSION
                                  </TranslatedText>
                            </Decode>    
                  </CodeListItem>                 
                 
               
                
        

              </CodeList>

          
        <CodeList OID="CodeList.LBCAT" Name="LBCAT" DataType="text">

        

                
                   <CodeListItem CodedValue="None" def:Rank="1.0">                 
                            <Decode>
                                  <TranslatedText>
                                        CHEMISTRY
                                  </TranslatedText>
                            </Decode>    
                  </CodeListItem>                 
                 
               
                
        

                
                   <CodeListItem CodedValue="None" def:Rank="2.0">                 
                            <Decode>
                                  <TranslatedText>
                                        HEMATOLOGY
                                  </TranslatedText>
                            </Decode>    
                  </CodeListItem>                 
                 
               
                
        

              </CodeList>

          
        <CodeList OID="CodeList.LBNRIND" Name="LBNRIND" DataType="text">

        

                
                   <CodeListItem CodedValue="None" def:Rank="1.0">                 
                            <Decode>
                                  <TranslatedText>
                                        HIGH
                                  </TranslatedText>
                            </Decode>    
                  </CodeListItem>                 
                 
               
                
        

                
                   <CodeListItem CodedValue="None" def:Rank="2.0">                 
                            <Decode>
                                  <TranslatedText>
                                        LOW
                                  </TranslatedText>
                            </Decode>    
                  </CodeListItem>                 
                 
               
                
        

                
                   <CodeListItem CodedValue="None" def:Rank="3.0">                 
                            <Decode>
                                  <TranslatedText>
                                        NORMAL
                                  </TranslatedText>
                            </Decode>    
                  </CodeListItem>                 
                 
               
                
        

              </CodeList>

          
        <CodeList OID="CodeList.LBTEST" Name="LBTEST" DataType="text">

        

                
                   <CodeListItem CodedValue="None" def:Rank="1.0">                 
                            <Decode>
                                  <TranslatedText>
                                        Alanine Aminotransferase; SGPT
                                  </TranslatedText>
                            </Decode>    
                  </CodeListItem>                 
                 
               
                
        

                
                   <CodeListItem CodedValue="None" def:Rank="2.0">                 
                            <Decode>
                                  <TranslatedText>
                                        Albumin; Microalbumin
                                  </TranslatedText>
                            </Decode>    
                  </CodeListItem>                 
                 
               
                
        

                
                   <CodeListItem CodedValue="None" def:Rank="3.0">                 
                            <Decode>
                                  <TranslatedText>
                                        Alkaline Phosphatase
                                  </TranslatedText>
                            </Decode>    
                  </CodeListItem>                 
                 
               
                
        

                
                   <CodeListItem CodedValue="None" def:Rank="4.0">                 
                            <Decode>
                                  <TranslatedText>
                                        Aspartate Aminotransferase; SGOT
                                  </TranslatedText>
                            </Decode>    
                  </CodeListItem>                 
                 
               
                
        

                
                   <CodeListItem CodedValue="None" def:Rank="5.0">                 
                            <Decode>
                                  <TranslatedText>
                                        Bilirubin; Total Bilirubin
                                  </TranslatedText>
                            </Decode>    
                  </CodeListItem>                 
                 
               
                
        

                
                   <CodeListItem CodedValue="None" def:Rank="6.0">                 
                            <Decode>
                                  <TranslatedText>
                                        Direct Bilirubin
                                  </TranslatedText>
                            </Decode>    
                  </CodeListItem>                 
                 
               
                
        

                
                   <CodeListItem CodedValue="None" def:Rank="7.0">                 
                            <Decode>
                                  <TranslatedText>
                                        Gamma Glutamyl Transferase
                                  </TranslatedText>
                            </Decode>    
                  </CodeListItem>                 
                 
               
                
        

                
                   <CodeListItem CodedValue="None" def:Rank="8.0">                 
                            <Decode>
                                  <TranslatedText>
                                        Hematocrit
                                  </TranslatedText>
                            </Decode>    
                  </CodeListItem>                 
                 
               
                
        

                
                   <CodeListItem CodedValue="None" def:Rank="9.0">                 
                            <Decode>
                                  <TranslatedText>
                                        Hemoglobin
                                  </TranslatedText>
                            </Decode>    
                  </CodeListItem>                 
                 
               
                
        

                
                   <CodeListItem CodedValue="None" def:Rank="10.0">                 
                            <Decode>
                                  <TranslatedText>
                                        Protein
                                  </TranslatedText>
                            </Decode>    
                  </CodeListItem>                 
                 
               
                
        

              </CodeList>

          
        <CodeList OID="CodeList.LBTESTCD" Name="LBTESTCD" DataType="text">

        

                
                   <CodeListItem CodedValue="None" def:Rank="1.0">                 
                            <Decode>
                                  <TranslatedText>
                                        Albumin; Microalbumin
                                  </TranslatedText>
                            </Decode>    
                  </CodeListItem>                 
                 
               
                
        

                
                   <CodeListItem CodedValue="None" def:Rank="2.0">                 
                            <Decode>
                                  <TranslatedText>
                                        Alkaline Phosphatase
                                  </TranslatedText>
                            </Decode>    
                  </CodeListItem>                 
                 
               
                
        

                
                   <CodeListItem CodedValue="None" def:Rank="3.0">                 
                            <Decode>
                                  <TranslatedText>
                                        Alanine Aminotransferase; SGPT
                                  </TranslatedText>
                            </Decode>    
                  </CodeListItem>                 
                 
               
                
        

                
                   <CodeListItem CodedValue="None" def:Rank="4.0">                 
                            <Decode>
                                  <TranslatedText>
                                        Aspartate Aminotransferase; SGOT
                                  </TranslatedText>
                            </Decode>    
                  </CodeListItem>                 
                 
               
                
        

                
                   <CodeListItem CodedValue="None" def:Rank="5.0">                 
                            <Decode>
                                  <TranslatedText>
                                        Direct Bilirubin
                                  </TranslatedText>
                            </Decode>    
                  </CodeListItem>                 
                 
               
                
        

                
                   <CodeListItem CodedValue="None" def:Rank="6.0">                 
                            <Decode>
                                  <TranslatedText>
                                        Bilirubin; Total Bilirubin
                                  </TranslatedText>
                            </Decode>    
                  </CodeListItem>                 
                 
               
                
        

                
                   <CodeListItem CodedValue="None" def:Rank="7.0">                 
                            <Decode>
                                  <TranslatedText>
                                        Gamma Glutamyl Transferase
                                  </TranslatedText>
                            </Decode>    
                  </CodeListItem>                 
                 
               
                
        

                
                   <CodeListItem CodedValue="None" def:Rank="8.0">                 
                            <Decode>
                                  <TranslatedText>
                                        Hematocrit
                                  </TranslatedText>
                            </Decode>    
                  </CodeListItem>                 
                 
               
                
        

                
                   <CodeListItem CodedValue="None" def:Rank="9.0">                 
                            <Decode>
                                  <TranslatedText>
                                        Hemoglobin
                                  </TranslatedText>
                            </Decode>    
                  </CodeListItem>                 
                 
               
                
        

                
                   <CodeListItem CodedValue="None" def:Rank="10.0">                 
                            <Decode>
                                  <TranslatedText>
                                        Protein
                                  </TranslatedText>
                            </Decode>    
                  </CodeListItem>                 
                 
               
                
        

              </CodeList>

          
        <CodeList OID="CodeList.NY" Name="NY" DataType="text">

        

                
                   <CodeListItem CodedValue="None" def:Rank="1.0">                 
                            <Decode>
                                  <TranslatedText>
                                        No
                                  </TranslatedText>
                            </Decode>    
                  </CodeListItem>                 
                 
               
                
        

                
                   <CodeListItem CodedValue="None" def:Rank="2.0">                 
                            <Decode>
                                  <TranslatedText>
                                        nan
                                  </TranslatedText>
                            </Decode>    
                  </CodeListItem>                 
                 
               
                
        

                
                   <CodeListItem CodedValue="None" def:Rank="3.0">                 
                            <Decode>
                                  <TranslatedText>
                                        U; Unknown
                                  </TranslatedText>
                            </Decode>    
                  </CodeListItem>                 
                 
               
                
        

                
                   <CodeListItem CodedValue="None" def:Rank="4.0">                 
                            <Decode>
                                  <TranslatedText>
                                        Yes
                                  </TranslatedText>
                            </Decode>    
                  </CodeListItem>                 
                 
               
                
        

              </CodeList>

          
        <CodeList OID="CodeList.RACE" Name="RACE" DataType="text">

        

                
                   <CodeListItem CodedValue="None" def:Rank="1.0">                 
                            <Decode>
                                  <TranslatedText>
                                        BLACK OR AFRICAN AMERICAN
                                  </TranslatedText>
                            </Decode>    
                  </CodeListItem>                 
                 
               
                
        

                
                   <CodeListItem CodedValue="None" def:Rank="2.0">                 
                            <Decode>
                                  <TranslatedText>
                                        OTHER
                                  </TranslatedText>
                            </Decode>    
                  </CodeListItem>                 
                 
               
                
        

                
                   <CodeListItem CodedValue="None" def:Rank="3.0">                 
                            <Decode>
                                  <TranslatedText>
                                        WHITE
                                  </TranslatedText>
                            </Decode>    
                  </CodeListItem>                 
                 
               
                
        

              </CodeList>

          
        <CodeList OID="CodeList.ROLECODE" Name="ROLECODE" DataType="text">

        

                
                   <CodeListItem CodedValue="None" def:Rank="1.0">                 
                            <Decode>
                                  <TranslatedText>
                                        Grouping Qualifier
                                  </TranslatedText>
                            </Decode>    
                  </CodeListItem>                 
                 
               
                
        

                
                   <CodeListItem CodedValue="None" def:Rank="2.0">                 
                            <Decode>
                                  <TranslatedText>
                                        Identifier
                                  </TranslatedText>
                            </Decode>    
                  </CodeListItem>                 
                 
               
                
        

                
                   <CodeListItem CodedValue="None" def:Rank="3.0">                 
                            <Decode>
                                  <TranslatedText>
                                        Record Qualifier
                                  </TranslatedText>
                            </Decode>    
                  </CodeListItem>                 
                 
               
                
        

                
                   <CodeListItem CodedValue="None" def:Rank="4.0">                 
                            <Decode>
                                  <TranslatedText>
                                        Rule
                                  </TranslatedText>
                            </Decode>    
                  </CodeListItem>                 
                 
               
                
        

                
                   <CodeListItem CodedValue="None" def:Rank="5.0">                 
                            <Decode>
                                  <TranslatedText>
                                        Result Qualifier
                                  </TranslatedText>
                            </Decode>    
                  </CodeListItem>                 
                 
               
                
        

                
                   <CodeListItem CodedValue="None" def:Rank="6.0">                 
                            <Decode>
                                  <TranslatedText>
                                        Synonym Qualifier
                                  </TranslatedText>
                            </Decode>    
                  </CodeListItem>                 
                 
               
                
        

                
                   <CodeListItem CodedValue="None" def:Rank="7.0">                 
                            <Decode>
                                  <TranslatedText>
                                        Timing
                                  </TranslatedText>
                            </Decode>    
                  </CodeListItem>                 
                 
               
                
        

                
                   <CodeListItem CodedValue="None" def:Rank="8.0">                 
                            <Decode>
                                  <TranslatedText>
                                        Topic
                                  </TranslatedText>
                            </Decode>    
                  </CodeListItem>                 
                 
               
                
        

              </CodeList>

          
        <CodeList OID="CodeList.SEX" Name="SEX" DataType="text">

        

                
                   <CodeListItem CodedValue="None" def:Rank="1.0">                 
                            <Decode>
                                  <TranslatedText>
                                        FEMALE
                                  </TranslatedText>
                            </Decode>    
                  </CodeListItem>                 
                 
               
                
        

                
                   <CodeListItem CodedValue="None" def:Rank="2.0">                 
                            <Decode>
                                  <TranslatedText>
                                        MALE
                                  </TranslatedText>
                            </Decode>    
                  </CodeListItem>                 
                 
               
                
        

                
                   <CodeListItem CodedValue="None" def:Rank="3.0">                 
                            <Decode>
                                  <TranslatedText>
                                        UNKNOWN
                                  </TranslatedText>
                            </Decode>    
                  </CodeListItem>                 
                 
               
                
        

              </CodeList>

          
        <CodeList OID="CodeList.TSPARM" Name="TSPARM" DataType="text">

        

                
                   <CodeListItem CodedValue="None" def:Rank="1.0">                 
                            <Decode>
                                  <TranslatedText>
                                        Added on to Existing Treatments
                                  </TranslatedText>
                            </Decode>    
                  </CodeListItem>                 
                 
               
                
        

                
                   <CodeListItem CodedValue="None" def:Rank="2.0">                 
                            <Decode>
                                  <TranslatedText>
                                        Planned Maximum Age of Subjects
                                  </TranslatedText>
                            </Decode>    
                  </CodeListItem>                 
                 
               
                
        

                
                   <CodeListItem CodedValue="None" def:Rank="3.0">                 
                            <Decode>
                                  <TranslatedText>
                                        Planned Minimum Age of Subjects
                                  </TranslatedText>
                            </Decode>    
                  </CodeListItem>                 
                 
               
                
        

                
                   <CodeListItem CodedValue="None" def:Rank="4.0">                 
                            <Decode>
                                  <TranslatedText>
                                        Age Group
                                  </TranslatedText>
                            </Decode>    
                  </CodeListItem>                 
                 
               
                
        

                
                   <CodeListItem CodedValue="None" def:Rank="5.0">                 
                            <Decode>
                                  <TranslatedText>
                                        Age Unit
                                  </TranslatedText>
                            </Decode>    
                  </CodeListItem>                 
                 
               
                
        

                
                   <CodeListItem CodedValue="None" def:Rank="6.0">                 
                            <Decode>
                                  <TranslatedText>
                                        Dose per Administration
                                  </TranslatedText>
                            </Decode>    
                  </CodeListItem>                 
                 
               
                
        

                
                   <CodeListItem CodedValue="None" def:Rank="7.0">                 
                            <Decode>
                                  <TranslatedText>
                                        Trial Length
                                  </TranslatedText>
                            </Decode>    
                  </CodeListItem>                 
                 
               
                
        

                
                   <CodeListItem CodedValue="None" def:Rank="8.0">                 
                            <Decode>
                                  <TranslatedText>
                                        Planned Number of Subjects
                                  </TranslatedText>
                            </Decode>    
                  </CodeListItem>                 
                 
               
                
        

                
                   <CodeListItem CodedValue="None" def:Rank="9.0">                 
                            <Decode>
                                  <TranslatedText>
                                        Trial is Randomized
                                  </TranslatedText>
                            </Decode>    
                  </CodeListItem>                 
                 
               
                
        

                
                   <CodeListItem CodedValue="None" def:Rank="10.0">                 
                            <Decode>
                                  <TranslatedText>
                                        Route of Administration
                                  </TranslatedText>
                            </Decode>    
                  </CodeListItem>                 
                 
               
                
        

                
                   <CodeListItem CodedValue="None" def:Rank="11.0">                 
                            <Decode>
                                  <TranslatedText>
                                        Sex of Participants
                                  </TranslatedText>
                            </Decode>    
                  </CodeListItem>                 
                 
               
                
        

                
                   <CodeListItem CodedValue="None" def:Rank="12.0">                 
                            <Decode>
                                  <TranslatedText>
                                        Study Stop Rules
                                  </TranslatedText>
                            </Decode>    
                  </CodeListItem>                 
                 
               
                
        

                
                   <CodeListItem CodedValue="None" def:Rank="13.0">                 
                            <Decode>
                                  <TranslatedText>
                                        Trial Blinding Schema
                                  </TranslatedText>
                            </Decode>    
                  </CodeListItem>                 
                 
               
                
        

                
                   <CodeListItem CodedValue="None" def:Rank="14.0">                 
                            <Decode>
                                  <TranslatedText>
                                        Control Type
                                  </TranslatedText>
                            </Decode>    
                  </CodeListItem>                 
                 
               
                
        

                
                   <CodeListItem CodedValue="None" def:Rank="15.0">                 
                            <Decode>
                                  <TranslatedText>
                                        Diagnosis Group
                                  </TranslatedText>
                            </Decode>    
                  </CodeListItem>                 
                 
               
                
        

                
                   <CodeListItem CodedValue="None" def:Rank="16.0">                 
                            <Decode>
                                  <TranslatedText>
                                        Trial Indication Type
                                  </TranslatedText>
                            </Decode>    
                  </CodeListItem>                 
                 
               
                
        

                
                   <CodeListItem CodedValue="None" def:Rank="17.0">                 
                            <Decode>
                                  <TranslatedText>
                                        Trial Title
                                  </TranslatedText>
                            </Decode>    
                  </CodeListItem>                 
                 
               
                
        

                
                   <CodeListItem CodedValue="None" def:Rank="18.0">                 
                            <Decode>
                                  <TranslatedText>
                                        Trial Phase Classification
                                  </TranslatedText>
                            </Decode>    
                  </CodeListItem>                 
                 
               
                
        

                
                   <CodeListItem CodedValue="None" def:Rank="19.0">                 
                            <Decode>
                                  <TranslatedText>
                                        Trial Type
                                  </TranslatedText>
                            </Decode>    
                  </CodeListItem>                 
                 
               
                
        

                
                   <CodeListItem CodedValue="None" def:Rank="20.0">                 
                            <Decode>
                                  <TranslatedText>
                                        Current Therapy or Treatment
                                  </TranslatedText>
                            </Decode>    
                  </CodeListItem>                 
                 
               
                
        

                
                   <CodeListItem CodedValue="None" def:Rank="21.0">                 
                            <Decode>
                                  <TranslatedText>
                                        Trial Primary Objective
                                  </TranslatedText>
                            </Decode>    
                  </CodeListItem>                 
                 
               
                
        

                
                   <CodeListItem CodedValue="None" def:Rank="22.0">                 
                            <Decode>
                                  <TranslatedText>
                                        Trial Secondary Objective
                                  </TranslatedText>
                            </Decode>    
                  </CodeListItem>                 
                 
               
                
        

                
                   <CodeListItem CodedValue="None" def:Rank="23.0">                 
                            <Decode>
                                  <TranslatedText>
                                        Clinical Study Sponsor; Study Sponsor; Sponsor
                                  </TranslatedText>
                            </Decode>    
                  </CodeListItem>                 
                 
               
                
        

                
                   <CodeListItem CodedValue="None" def:Rank="24.0">                 
                            <Decode>
                                  <TranslatedText>
                                        Comparative Treatment Name
                                  </TranslatedText>
                            </Decode>    
                  </CodeListItem>                 
                 
               
                
        

                
                   <CodeListItem CodedValue="None" def:Rank="25.0">                 
                            <Decode>
                                  <TranslatedText>
                                        Dose Units
                                  </TranslatedText>
                            </Decode>    
                  </CodeListItem>                 
                 
               
                
        

                
                   <CodeListItem CodedValue="None" def:Rank="26.0">                 
                            <Decode>
                                  <TranslatedText>
                                        Dosing Frequency
                                  </TranslatedText>
                            </Decode>    
                  </CodeListItem>                 
                 
               
                
        

                
                   <CodeListItem CodedValue="None" def:Rank="27.0">                 
                            <Decode>
                                  <TranslatedText>
                                        Trial Indication
                                  </TranslatedText>
                            </Decode>    
                  </CodeListItem>                 
                 
               
                
        

                
                   <CodeListItem CodedValue="None" def:Rank="28.0">                 
                            <Decode>
                                  <TranslatedText>
                                        Investigational Therapy or Treatment
                                  </TranslatedText>
                            </Decode>    
                  </CodeListItem>                 
                 
               
                
        

                
                   <CodeListItem CodedValue="None" def:Rank="29.0">                 
                            <Decode>
                                  <TranslatedText>
                                        Ratio for Randomization
                                  </TranslatedText>
                            </Decode>    
                  </CodeListItem>                 
                 
               
                
        

                
                   <CodeListItem CodedValue="None" def:Rank="30.0">                 
                            <Decode>
                                  <TranslatedText>
                                        Stratification for Randomization
                                  </TranslatedText>
                            </Decode>    
                  </CodeListItem>                 
                 
               
                
        

                
                   <CodeListItem CodedValue="None" def:Rank="30.0">                 
                            <Decode>
                                  <TranslatedText>
                                        Stratification for Randomization
                                  </TranslatedText>
                            </Decode>    
                  </CodeListItem>                 
                 
               
                
        

              </CodeList>

          
        <CodeList OID="CodeList.TSPARMCD" Name="TSPARMCD" DataType="text">

        

                
                   <CodeListItem CodedValue="None" def:Rank="1.0">                 
                            <Decode>
                                  <TranslatedText>
                                        Added on to Existing Treatments
                                  </TranslatedText>
                            </Decode>    
                  </CodeListItem>                 
                 
               
                
        

                
                   <CodeListItem CodedValue="None" def:Rank="2.0">                 
                            <Decode>
                                  <TranslatedText>
                                        Planned Maximum Age of Subjects
                                  </TranslatedText>
                            </Decode>    
                  </CodeListItem>                 
                 
               
                
        

                
                   <CodeListItem CodedValue="None" def:Rank="3.0">                 
                            <Decode>
                                  <TranslatedText>
                                        Planned Minimum Age of Subjects
                                  </TranslatedText>
                            </Decode>    
                  </CodeListItem>                 
                 
               
                
        

                
                   <CodeListItem CodedValue="None" def:Rank="4.0">                 
                            <Decode>
                                  <TranslatedText>
                                        Age Span
                                  </TranslatedText>
                            </Decode>    
                  </CodeListItem>                 
                 
               
                
        

                
                   <CodeListItem CodedValue="None" def:Rank="5.0">                 
                            <Decode>
                                  <TranslatedText>
                                        Age Unit
                                  </TranslatedText>
                            </Decode>    
                  </CodeListItem>                 
                 
               
                
        

                
                   <CodeListItem CodedValue="None" def:Rank="6.0">                 
                            <Decode>
                                  <TranslatedText>
                                        Dose per Administration
                                  </TranslatedText>
                            </Decode>    
                  </CodeListItem>                 
                 
               
                
        

                
                   <CodeListItem CodedValue="None" def:Rank="7.0">                 
                            <Decode>
                                  <TranslatedText>
                                        Trial Length
                                  </TranslatedText>
                            </Decode>    
                  </CodeListItem>                 
                 
               
                
        

                
                   <CodeListItem CodedValue="None" def:Rank="8.0">                 
                            <Decode>
                                  <TranslatedText>
                                        Planned Number of Subjects
                                  </TranslatedText>
                            </Decode>    
                  </CodeListItem>                 
                 
               
                
        

                
                   <CodeListItem CodedValue="None" def:Rank="9.0">                 
                            <Decode>
                                  <TranslatedText>
                                        Trial is Randomized
                                  </TranslatedText>
                            </Decode>    
                  </CodeListItem>                 
                 
               
                
        

                
                   <CodeListItem CodedValue="None" def:Rank="10.0">                 
                            <Decode>
                                  <TranslatedText>
                                        Route of Administration
                                  </TranslatedText>
                            </Decode>    
                  </CodeListItem>                 
                 
               
                
        

                
                   <CodeListItem CodedValue="None" def:Rank="11.0">                 
                            <Decode>
                                  <TranslatedText>
                                        Sex of Participants
                                  </TranslatedText>
                            </Decode>    
                  </CodeListItem>                 
                 
               
                
        

                
                   <CodeListItem CodedValue="None" def:Rank="12.0">                 
                            <Decode>
                                  <TranslatedText>
                                        Study Stop Rules
                                  </TranslatedText>
                            </Decode>    
                  </CodeListItem>                 
                 
               
                
        

                
                   <CodeListItem CodedValue="None" def:Rank="13.0">                 
                            <Decode>
                                  <TranslatedText>
                                        Trial Blinding Schema
                                  </TranslatedText>
                            </Decode>    
                  </CodeListItem>                 
                 
               
                
        

                
                   <CodeListItem CodedValue="None" def:Rank="14.0">                 
                            <Decode>
                                  <TranslatedText>
                                        Control Type
                                  </TranslatedText>
                            </Decode>    
                  </CodeListItem>                 
                 
               
                
        

                
                   <CodeListItem CodedValue="None" def:Rank="15.0">                 
                            <Decode>
                                  <TranslatedText>
                                        Diagnosis Group
                                  </TranslatedText>
                            </Decode>    
                  </CodeListItem>                 
                 
               
                
        

                
                   <CodeListItem CodedValue="None" def:Rank="16.0">                 
                            <Decode>
                                  <TranslatedText>
                                        Trial Indication Type
                                  </TranslatedText>
                            </Decode>    
                  </CodeListItem>                 
                 
               
                
        

                
                   <CodeListItem CodedValue="None" def:Rank="17.0">                 
                            <Decode>
                                  <TranslatedText>
                                        Trial Title
                                  </TranslatedText>
                            </Decode>    
                  </CodeListItem>                 
                 
               
                
        

                
                   <CodeListItem CodedValue="None" def:Rank="18.0">                 
                            <Decode>
                                  <TranslatedText>
                                        Trial Phase Classification
                                  </TranslatedText>
                            </Decode>    
                  </CodeListItem>                 
                 
               
                
        

                
                   <CodeListItem CodedValue="None" def:Rank="19.0">                 
                            <Decode>
                                  <TranslatedText>
                                        Trial Type
                                  </TranslatedText>
                            </Decode>    
                  </CodeListItem>                 
                 
               
                
        

                
                   <CodeListItem CodedValue="None" def:Rank="20.0">                 
                            <Decode>
                                  <TranslatedText>
                                        Current Therapy or Treatment
                                  </TranslatedText>
                            </Decode>    
                  </CodeListItem>                 
                 
               
                
        

                
                   <CodeListItem CodedValue="None" def:Rank="21.0">                 
                            <Decode>
                                  <TranslatedText>
                                        Trial Primary Objective
                                  </TranslatedText>
                            </Decode>    
                  </CodeListItem>                 
                 
               
                
        

                
                   <CodeListItem CodedValue="None" def:Rank="22.0">                 
                            <Decode>
                                  <TranslatedText>
                                        Trial Secondary Objective
                                  </TranslatedText>
                            </Decode>    
                  </CodeListItem>                 
                 
               
                
        

                
                   <CodeListItem CodedValue="None" def:Rank="23.0">                 
                            <Decode>
                                  <TranslatedText>
                                        Clinical Study Sponsor; Study Sponsor; Sponsor
                                  </TranslatedText>
                            </Decode>    
                  </CodeListItem>                 
                 
               
                
        

                
                   <CodeListItem CodedValue="None" def:Rank="24.0">                 
                            <Decode>
                                  <TranslatedText>
                                        Comparative Treatment Name
                                  </TranslatedText>
                            </Decode>    
                  </CodeListItem>                 
                 
               
                
        

                
                   <CodeListItem CodedValue="None" def:Rank="25.0">                 
                            <Decode>
                                  <TranslatedText>
                                        Dose Units
                                  </TranslatedText>
                            </Decode>    
                  </CodeListItem>                 
                 
               
                
        

                
                   <CodeListItem CodedValue="None" def:Rank="26.0">                 
                            <Decode>
                                  <TranslatedText>
                                        Dosing Frequency
                                  </TranslatedText>
                            </Decode>    
                  </CodeListItem>                 
                 
               
                
        

                
                   <CodeListItem CodedValue="None" def:Rank="27.0">                 
                            <Decode>
                                  <TranslatedText>
                                        Trial Indication
                                  </TranslatedText>
                            </Decode>    
                  </CodeListItem>                 
                 
               
                
        

                
                   <CodeListItem CodedValue="None" def:Rank="28.0">                 
                            <Decode>
                                  <TranslatedText>
                                        Investigational Therapy or Treatment
                                  </TranslatedText>
                            </Decode>    
                  </CodeListItem>                 
                 
               
                
        

                
                   <CodeListItem CodedValue="None" def:Rank="29.0">                 
                            <Decode>
                                  <TranslatedText>
                                        Ratio for Randomization
                                  </TranslatedText>
                            </Decode>    
                  </CodeListItem>                 
                 
               
                
        

              </CodeList>

          
        <CodeList OID="CodeList.UNIT" Name="UNIT" DataType="text">

        

                
                   <CodeListItem CodedValue="None" def:Rank="1.0">                 
                            <Decode>
                                  <TranslatedText>
                                        Percentage
                                  </TranslatedText>
                            </Decode>    
                  </CodeListItem>                 
                 
               
                
        

                
                   <CodeListItem CodedValue="None" def:Rank="2.0">                 
                            <Decode>
                                  <TranslatedText>
                                        Gram per Deciliter
                                  </TranslatedText>
                            </Decode>    
                  </CodeListItem>                 
                 
               
                
        

                
                   <CodeListItem CodedValue="None" def:Rank="3.0">                 
                            <Decode>
                                  <TranslatedText>
                                        International Unit per Liter
                                  </TranslatedText>
                            </Decode>    
                  </CodeListItem>                 
                 
               
                
        

                
                   <CodeListItem CodedValue="None" def:Rank="4.0">                 
                            <Decode>
                                  <TranslatedText>
                                        Milligram per Deciliter
                                  </TranslatedText>
                            </Decode>    
                  </CodeListItem>                 
                 
               
                
        

                
                   <CodeListItem CodedValue="None" def:Rank="5.0">                 
                            <Decode>
                                  <TranslatedText>
                                        Milligram
                                  </TranslatedText>
                            </Decode>    
                  </CodeListItem>                 
                 
               
                
        

              </CodeList>

          
        <CodeList OID="CodeList.VISIT" Name="VISIT" DataType="text">

        

                
                   <CodeListItem CodedValue="None" def:Rank="1.0">                 
                            <Decode>
                                  <TranslatedText>
                                        Baseline
                                  </TranslatedText>
                            </Decode>    
                  </CodeListItem>                 
                 
               
                
        

                
                   <CodeListItem CodedValue="None" def:Rank="2.0">                 
                            <Decode>
                                  <TranslatedText>
                                        Month 3
                                  </TranslatedText>
                            </Decode>    
                  </CodeListItem>                 
                 
               
                
        

                
                   <CodeListItem CodedValue="None" def:Rank="3.0">                 
                            <Decode>
                                  <TranslatedText>
                                        Month 6
                                  </TranslatedText>
                            </Decode>    
                  </CodeListItem>                 
                 
               
                
        

              </CodeList>

    

            </MetaDataVersion>
    </Study>
</ODM>
